pi_system_time_s,status_code,uwb_data.local_node.id,uwb_data.local_node.role,uwb_data.anchor_info.anchor_count,dis_0,dis_1,dis_2,dis_3,imu_data.IMU_temp,imu_data.accX,imu_data.accY,imu_data.accZ,imu_data.gyroX,imu_data.gyroY,imu_data.gyroZ,imu_data.MagX,imu_data.MagY,imu_data.MagZ,imu_data.magX,imu_data.magY,imu_data.magZ,imu_data.roll,imu_data.tilt,imu_data.pan,imu_data.Qw,imu_data.Qx,imu_data.Qy,imu_data.Qz,imu_data.timestamp,imu_data.readtime
1742703763.822190,,0,Tag,4,5.937,3.682,3.616,6.148,,9.671832,-1.147259,0.100767,-0.072268,0.069425,0.11684300000000000,-1290.861312,-481.66864,356.515296,-1290.0,-465.0,381.0,-83.242688,84.882104,139.568656,-0.229981,0.6342910000000000,0.304015,0.672574,58627.095,58629.481
1742703763.841550,,0,Tag,4,5.952,3.694,3.612,6.207,,9.709922000000000,-1.149211,0.108468,-0.0023210000000000000,0.066906,0.169841,-1284.85376,-484.530528,353.39811200000000,-1284.0,-468.0,378.0,-83.243296,84.873784,139.576192,-0.229983,0.63429,0.30400500000000000,0.6725790000000000,58647.095,58649.482
1742703763.863040,,0,Tag,4,5.964,3.659,3.633,6.214,,9.744891000000000,-1.140636,0.109244,-0.07208000000000000,-0.039611,-0.00032000000000000000,-1287.8613760000000,-483.16707200000000,356.455136,-1287.0,-466.5,381.0,-83.243352,84.864728,139.584336,-0.229981,0.6342870000000000,0.303996,0.6725870000000000,58667.095,58669.515
1742703763.882420,,0,Tag,4,5.909,3.68,3.605,6.239,,9.718316,-1.1567130000000000,0.10044500000000000,0.068218,-0.06915200000000000,0.0060540000000000000,-1290.8545280000000,-477.038272,353.72099200000000,-1290.0,-460.5,378.0,-83.242976,84.86056000000000,139.58801600000000,-0.229977,0.634284,0.303994,0.672592,58687.095,58689.479
1742703763.901910,,0,Tag,4,5.954,3.698,3.647,6.211,,9.674226000000000,-1.150801,0.102131,0.120612,-0.071558,0.05899,-1286.361472,-481.66864,356.526304,-1285.5,-465.0,381.0,-83.243,84.865016,139.585488,-0.229987,0.634282,0.304006,0.672585,58707.095,58709.478
1742703763.922380,,0,Tag,4,5.949,3.668,3.574,6.196,,9.709721,-1.149003,0.095729,0.053615000000000000,-0.059566000000000000,0.126146,-1283.36512,-481.73616,358.03209600000000,-1282.5,-465.0,382.5,-83.243408,84.867328,139.583856,-0.229993,0.6342830000000000,0.304009,0.672581,58727.095,58729.514
1742703763.940780,,0,Tag,4,5.932,3.673,3.593,6.193,,9.736078,-1.141805,0.110873,-0.0022920000000000000,-0.0019300000000000000,0.11419700000000000,-1280.346368,-487.392384,350.277248,-1279.5,-471.0,375.0,-83.24420000000000,84.867344,139.584512,-0.23000100000000000,0.634284,0.304008,0.672578,58747.095,58749.477
1742703763.961250,,0,Tag,4,5.942,3.651,3.569,6.236,,9.711153,-1.151992,0.098982,0.06845800000000000,0.0017520000000000000,0.00895,-1289.3685760000000,-483.30211200000000,359.448288,-1288.5,-466.5,384.0,-83.244464,84.86380800000000,139.587424,-0.23000000000000000,0.634284,0.304002,0.672581,58767.095,58769.48
1742703763.982840,,0,Tag,4,5.935,3.63,3.609,6.209,,9.67446,-1.148957,0.100141,-0.016432,-0.030202,0.11298800000000000,-1292.365312,-478.739264,358.145088,-1291.5,-462.0,382.5,-83.243584,84.86817600000000,139.583168,-0.22999400000000000,0.634284,0.304009,0.67258,58787.095,58789.515
1742703764.001240,,0,Tag,4,5.932,3.71,3.567,6.144,,9.70279,-1.143723,0.09616900000000000,-0.07191,0.072182,0.046512,-1293.87648,-478.94176,362.636704,-1293.0,-462.0,387.0,-83.24393600000000,84.855496,139.59496,-0.22999500000000000,0.6342790000000000,0.303998,0.672589,58807.095,58809.479
1742703764.021700,,0,Tag,4,5.966,3.71,3.619,6.2,,9.736071000000000,-1.138302,0.108336,0.067774,0.031003,0.168643,-1289.3646080000000,-484.733024,357.88240000000000,-1288.5,-468.0,382.5,-83.24450400000000,84.851056,139.598848,-0.22999700000000000,0.63428,0.30399,0.6725910000000000,58827.095,58829.479
1742703764.043220,,0,Tag,4,5.98,3.654,3.558,6.2,,9.704895000000000,-1.139154,0.10202,0.05345,-0.005599,0.198794,-1287.8728960000000,-478.87427200000000,361.15296,-1287.0,-462.0,385.5,-83.245176,84.854816,139.59603200000000,-0.230005,0.634282,0.303993,0.672585,58847.095,58849.514
1742703764.061620,,0,Tag,4,5.942,3.67,3.626,6.139,,9.674226000000000,-1.154208,0.107066,0.068011,-0.001692,0.09686400000000000,-1289.376,-483.43712,362.445152,-1288.5,-466.5,387.0,-83.245296,84.85171200000000,139.59888000000000,-0.230005,0.634281,0.30399,0.672588,58867.095,58869.482
1742703764.082050,,0,Tag,4,5.894,3.663,3.612,6.184,,9.704005,-1.146301,0.091719,0.067539,-0.074389,0.139683,-1289.383552,-480.575264,365.577088,-1288.5,-463.5,390.0,-83.244824,84.855504,139.59584000000000,-0.230006,0.63428,0.303998,0.672585,58887.095,58889.516
1742703764.102470,,0,Tag,4,5.98,3.663,3.637,6.2,,9.729653000000000,-1.143464,0.112067,0.025985000000000000,0.054612,0.116614,-1289.379584,-483.50464,363.94361600000000,-1288.5,-466.5,388.5,-83.245736,84.85444800000000,139.597216,-0.230013,0.634281,0.30399500000000000,0.6725830000000000,58907.095,58909.513
1742703764.121830,,0,Tag,4,5.923,3.689,3.548,6.171,,9.705181,-1.151775,0.10491200000000000,0.04998,-0.039788,0.165684,-1289.361024,-484.665536,356.383936,-1288.5,-468.0,381.0,-83.245296,84.847296,139.60521600000000,-0.230018,0.634273,0.30399900000000000,0.6725870000000000,58927.095,58929.48
1742703764.142290,,0,Tag,4,5.964,3.673,3.586,6.248,,9.693517,-1.1480330000000000,0.09743400000000000,0.06828,0.041814,0.073986,-1283.3652480000000,-480.237664,358.09961600000000,-1282.5,-463.5,382.5,-83.24509600000000,84.853296,139.599952,-0.230019,0.634274,0.304006,0.672582,58947.095,58949.514
1742703764.161670,,0,Tag,4,5.93,3.684,3.569,6.198,,9.702044000000000,-1.1419680000000000,0.104019,0.01206,0.027995,0.073207,-1292.361344,-481.66864,356.511616,-1291.5,-465.0,381.0,-83.245992,84.851168,139.601104,-0.230019,0.634278,0.303996,0.6725830000000000,58967.095,58969.518000000000
1742703764.182080,,0,Tag,4,5.937,3.644,3.586,6.229,,9.726551000000000,-1.137286,0.104589,-0.001963,0.069663,0.09951,-1295.3460480000000,-487.392384,350.240544,-1294.5,-471.0,375.0,-83.246408,84.842888,139.609504,-0.23002500000000000,0.634274,0.303991,0.6725870000000000,58987.095,58989.478
1742703764.202500,,0,Tag,4,5.932,3.619,3.609,6.229,,9.707831000000000,-1.153734,0.097812,-0.100786,-0.058022,0.11153000000000000,-1286.361856,-478.67171200000000,356.661344,-1285.5,-462.0,381.0,-83.24623200000000,84.836928,139.614592,-0.230021,0.634272,0.303985,0.672593,59007.095,59009.514
1742703764.221880,,0,Tag,4,5.956,3.68,3.616,6.137,,9.69726,-1.138992,0.106733,0.011798,0.012160000000000000,0.114826,-1287.86176,-478.67171200000000,356.657664,-1287.0,-462.0,381.0,-83.246376,84.83076800000000,139.620192,-0.23002,0.634269,0.30398,0.6725980000000000,59027.095,59029.515
1742703764.241260,,0,Tag,4,5.949,3.677,3.548,6.239,,9.721814,-1.142154,0.10352400000000000,-0.019668000000000000,-0.000439,0.078969,-1286.343552,-478.33417600000000,349.169184,-1285.5,-462.0,373.5,-83.24744800000000,84.828808,139.622592,-0.23003000000000000,0.63427,0.30397600000000000,0.6725950000000000,59047.095,59049.479
1742703764.262750,,0,Tag,4,5.952,3.687,3.588,6.178,,9.718283,-1.150617,0.102611,0.011366,-0.115468,0.10961300000000000,-1283.35744,-484.598016,354.900192,-1282.5,-468.0,379.5,-83.246984,84.826752,139.625264,-0.23003100000000000,0.634266,0.303981,0.672597,59067.095,59069.514
1742703764.283180,,0,Tag,4,5.913,3.623,3.553,6.128,,9.702077,-1.151452,0.107267,-0.058538,-0.085001,0.068323,-1287.854464,-478.536704,353.6608,-1287.0,-462.0,378.0,-83.247016,84.839328,139.61273600000000,-0.23002800000000000,0.634274,0.303985,0.672588,59087.095,59089.514
1742703764.301500,,0,Tag,4,5.909,3.633,3.644,6.171,,9.699232,-1.151848,0.10364800000000000,0.067742,-0.05556,0.112274,-1287.87264,-480.372704,361.08544,-1287.0,-463.5,385.5,-83.246984,84.84552,139.606112,-0.23002300000000000,0.6342790000000000,0.303985,0.672585,59107.095,59109.478
1742703764.321940,,0,Tag,4,5.947,3.649,3.583,6.16,,9.712546,-1.146763,0.10335900000000000,0.06816,-0.014357,0.057603000000000000,-1286.3616,-480.17017600000000,356.593824,-1285.5,-463.5,381.0,-83.246752,84.848976,139.604368,-0.23003000000000000,0.634276,0.30399700000000000,0.67258,59127.095,59129.516
1742703764.342350,,0,Tag,4,5.93,3.68,3.607,6.198,,9.714476,-1.1515930000000000,0.10260600000000000,-0.044279,-0.000557,0.08591400000000000,-1289.372416,-481.8712,361.014272,-1288.5,-465.0,385.5,-83.24613600000000,84.855936,139.59816,-0.23002900000000000,0.634277,0.304006,0.672576,59147.095,59149.513
1742703764.361710,,0,Tag,4,5.94,3.694,3.612,6.162,,9.700426,-1.148485,0.09752800000000000,-0.019786000000000000,0.015908,0.11485800000000000,-1289.379456,-485.003072,363.87609600000000,-1288.5,-468.0,388.5,-83.2462,84.848432,139.60488000000000,-0.23002700000000000,0.634274,0.30399900000000000,0.672582,59167.095,59169.478
1742703764.382160,,0,Tag,4,5.999,3.635,3.628,6.144,,9.703998,-1.156167,0.10939200000000000,0.053853,-0.071542,0.069302,-1287.8720000000000,-487.864992,360.747904,-1287.0,-471.0,385.5,-83.246872,84.851424,139.60244800000000,-0.230033,0.634277,0.304,0.672577,59187.095,59189.515
1742703764.401540,,0,Tag,4,5.923,3.635,3.607,6.216,,9.710705000000000,-1.158444,0.099947,0.053782000000000000,-0.07209300000000000,0.083368,-1290.856832,-489.093376,354.67929600000000,-1290.0,-472.5,379.5,-83.245496,84.8552,139.59929600000000,-0.23002800000000000,0.634273,0.304012,0.672577,59207.095,59209.517
1742703764.421950,,0,Tag,4,5.928,3.628,3.637,6.218,,9.718282,-1.1472100000000000,0.097676,0.067742,-0.05556,0.112274,-1284.857472,-484.598016,354.896512,-1284.0,-468.0,379.5,-83.245672,84.857112,139.59769600000000,-0.23003000000000000,0.634274,0.304013,0.6725750000000000,59227.095,59229.479
1742703764.442370,,0,Tag,4,5.916,3.656,3.595,6.142,,9.703957000000000,-1.142959,0.103117,0.0684,0.056547,0.060499,-1283.36896,-480.305216,359.598016,-1282.5,-463.5,384.0,-83.245032,84.852088,139.60392,-0.230035,0.634266,0.30402200000000000,0.672577,59247.095,59249.514
1742703764.460690,,0,Tag,4,5.952,3.687,3.583,6.241,,9.70159,-1.144735,0.10099800000000000,0.033410000000000000,0.019704,0.009549,-1287.8647040000000,-484.733024,357.88604800000000,-1287.0,-468.0,382.5,-83.24471200000000,84.85063200000000,139.60560000000000,-0.230035,0.634263,0.30402400000000000,0.672578,59267.095,59269.48
1742703764.481140,,0,Tag,4,5.949,3.673,3.619,6.171,,9.707511,-1.137511,0.100785,-0.054597,0.0011640000000000000,0.043678000000000000,-1289.353856,-483.032064,353.454592,-1288.5,-466.5,378.0,-83.244224,84.846904,139.608,-0.23002600000000000,0.634263,0.304018,0.672585,59287.095,59289.479
1742703764.502620,,0,Tag,4,5.966,3.687,3.576,6.218,,9.717348,-1.150852,0.096845,-0.11483,-0.099372,0.08161,-1290.861952,-475.674848,356.785344,-1290.0,-459.0,381.0,-83.243552,84.846584,139.60673600000000,-0.230013,0.634265,0.304013,0.67259,59307.095,59309.517
1742703764.521960,,0,Tag,4,5.923,3.666,3.595,6.189,,9.714734,-1.1554800000000000,0.101558,-0.03764,-0.07260900000000000,0.111175,-1290.843136,-479.832608,349.090624,-1290.0,-463.5,373.5,-83.243648,84.85800000000000,139.593696,-0.23000000000000000,0.634277,0.30400700000000000,0.672585,59327.095,59329.479
1742703764.541340,,0,Tag,4,5.923,3.644,3.654,6.216,,9.714689,-1.1526460000000000,0.112256,-0.002533,-0.072835,0.1113,-1283.346432,-484.395488,350.404896,-1282.5,-468.0,375.0,-83.24428000000000,84.873128,139.57814400000000,-0.22999600000000000,0.634289,0.30400700000000000,0.6725750000000000,59347.095,59349.477
1742703764.561790,,0,Tag,4,5.894,3.694,3.609,6.175,,9.700158,-1.144933,0.10219100000000000,0.081965,-0.002472,0.114497,-1289.373056,-475.87737600000000,361.284288,-1288.5,-459.0,385.5,-83.24450400000000,84.877336,139.574448,-0.22999900000000000,0.6342910000000000,0.30401,0.6725710000000000,59367.095,59369.517
1742703764.581140,,0,Tag,4,5.911,3.687,3.607,6.162,,9.702776,-1.144682,0.10221,0.032814000000000000,-0.002156,0.114322,-1283.358336,-477.10576,355.237728,-1282.5,-460.5,379.5,-83.244952,84.882104,139.57012800000000,-0.23000300000000000,0.6342950000000000,0.304011,0.672565,59387.095,59389.482
1742703764.601560,,0,Tag,4,5.952,3.708,3.6,6.218,,9.709989,-1.1545890000000000,0.094266,0.067504,-0.022864,0.184053,-1286.357376,-484.598016,354.892864,-1285.5,-468.0,379.5,-83.24544,84.889544,139.562464,-0.23000200000000000,0.6343020000000000,0.30401,0.6725600000000000,59407.095,59409.482
1742703764.620940,,0,Tag,4,5.966,3.684,3.586,6.157,,9.723063,-1.1508290000000000,0.096907,-0.001624,0.072282,0.032696000000000000,-1289.379712,-482.00620800000000,364.01113600000000,-1288.5,-465.0,388.5,-83.24509600000000,84.893536,139.558592,-0.22999900000000000,0.634303,0.304014,0.672558,59427.095,59429.516
1742703764.641380,,0,Tag,4,5.954,3.661,3.628,6.241,,9.707513000000000,-1.144325,0.11065500000000000,-0.002352,-0.019656,0.11347300000000000,-1289.3688320000000,-480.305216,359.583328,-1288.5,-463.5,384.0,-83.244344,84.89411200000000,139.557472,-0.229992,0.6343020000000000,0.304015,0.672561,59447.095,59449.479
1742703764.661800,,0,Tag,4,5.94,3.656,3.565,6.146,,9.702774,-1.14353,0.100965,-0.002203,-0.001241,0.09661400000000000,-1287.872384,-483.36963200000000,360.950432,-1287.0,-466.5,385.5,-83.24420000000000,84.89567200000000,139.55649600000000,-0.22999400000000000,0.634301,0.30402,0.672559,59467.095,59469.479
1742703764.681180,,0,Tag,4,5.904,3.724,3.626,6.182,,9.706833,-1.148629,0.105289,0.11005,-0.044093,0.084727,-1290.8797440000000,-482.00620800000000,364.007456,-1290.0,-465.0,388.5,-83.244464,84.899,139.554736,-0.23000300000000000,0.6343,0.30402800000000000,0.672553,59487.095,59489.514
1742703764.701600,,0,Tag,4,5.959,3.71,3.555,6.227,,9.731371,-1.149314,0.103906,0.068102,0.050796,0.116619,-1283.379456,-485.003072,363.890784,-1282.5,-468.0,388.5,-83.24454400000000,84.887688,139.56636800000000,-0.230009,0.634292,0.30402600000000000,0.672559,59507.095,59509.479
1742703764.722030,,0,Tag,4,5.954,3.698,3.623,6.178,,9.703992,-1.149525,0.10121,0.06804200000000000,0.033070000000000000,0.115895,-1295.365376,-478.739264,358.13776000000000,-1294.5,-462.0,382.5,-83.245136,84.885848,139.56968,-0.23002200000000000,0.634289,0.30403000000000000,0.6725560000000000,59527.095,59529.478
1742703764.742440,,0,Tag,4,6.02,3.684,3.562,6.214,,9.695437,-1.1563570000000000,0.105462,0.11007500000000000,-0.016282000000000000,0.099951,-1289.3685760000000,-483.30211200000000,359.448288,-1288.5,-466.5,384.0,-83.244576,84.8916,139.565024,-0.23002300000000000,0.634288,0.304041,0.672551,59547.095,59549.516
1742703764.760760,,0,Tag,4,5.935,3.656,3.609,6.184,,9.717078000000000,-1.1493260000000000,0.104949,0.050128,-0.073174,0.11148800000000000,-1292.379776,-482.00620800000000,364.00377600000000,-1291.5,-465.0,388.5,-83.244688,84.891936,139.564528,-0.23002300000000000,0.634289,0.304039,0.672551,59567.095,59569.479
1742703764.781180,,0,Tag,4,5.98,3.694,3.633,6.225,,9.727752000000000,-1.141937,0.108384,0.033172,0.0006,0.043991000000000000,-1286.365184,-480.237664,358.09225600000000,-1285.5,-463.5,382.5,-83.24471200000000,84.89412,139.56168,-0.230018,0.634292,0.304036,0.672551,59587.095,59589.48
1742703764.801610,,0,Tag,4,5.913,3.696,3.598,6.189,,9.701124,-1.14873,0.103309,-0.072748,-0.07238400000000000,0.11105,-1286.357632,-483.099584,354.960352,-1285.5,-466.5,379.5,-83.244112,84.89192,139.56249600000000,-0.230008,0.634293,0.304031,0.672557,59607.095,59609.515
1742703764.822030,,0,Tag,4,5.983,3.734,3.541,6.155,,9.689722,-1.1554880000000000,0.103684,-0.072419,-0.00079,0.09636400000000000,-1289.346176,-485.89395200000000,350.32272,-1288.5,-469.5,375.0,-83.24372800000000,84.89553600000000,139.55865600000000,-0.23000300000000000,0.634294,0.304033,0.6725560000000000,59627.095,59629.481
1742703764.841400,,0,Tag,4,5.985,3.67,3.635,6.207,,9.705189000000000,-1.151872,0.102514,-0.07232900000000000,-1E-04,0.07878100000000000,-1293.853568,-486.02899200000000,353.30857600000000,-1293.0,-469.5,378.0,-83.24323200000000,84.892,139.561056,-0.22999500000000000,0.634294,0.30402800000000000,0.672562,59647.095,59649.479
1742703764.861830,,0,Tag,4,6.013,3.687,3.588,6.187,,9.722086,-1.149603,0.103574,0.053949,-0.043180000000000000,0.07046,-1290.857728,-480.10265600000000,355.08435200000000,-1290.0,-463.5,379.5,-83.242144,84.889816,139.562976,-0.229988,0.634289,0.30403200000000000,0.672566,59667.095,59669.515
1742703764.882270,,0,Tag,4,5.959,3.673,3.598,6.236,,9.712329,-1.146132,0.095167,0.067953,0.032381,0.13347800000000000,-1278.857984,-480.10265600000000,355.113728,-1278.0,-463.5,379.5,-83.242656,84.88860800000000,139.56552,-0.22999900000000000,0.6342870000000000,0.304036,0.672563,59687.095,59689.482
1742703764.901640,,0,Tag,4,5.937,3.677,3.605,6.169,,9.700405,-1.147092,0.10227700000000000,0.067922,-0.002381,0.114447,-1290.8611840000000,-483.16707200000000,356.447776,-1290.0,-466.5,381.0,-83.24332800000000,84.882792,139.572016,-0.230009,0.6342830000000000,0.304035,0.6725640000000000,59707.095,59709.482
1742703764.921020,,0,Tag,4,5.942,3.701,3.605,6.209,,9.704929,-1.143225,0.096414,0.12395100000000000,-0.003845,0.142779,-1287.861504,-481.66864,356.522656,-1287.0,-465.0,381.0,-83.24393600000000,84.88156,139.57416,-0.230018,0.634282,0.304036,0.672561,59727.095,59729.513
1742703764.941440,,0,Tag,4,5.961,3.654,3.602,6.207,,9.712283,-1.1421460000000000,0.10461900000000000,-0.019489,0.0009380000000000000,0.043803000000000000,-1280.351488,-473.97385600000000,352.38323200000000,-1279.5,-457.5,376.5,-83.244464,84.880208,139.575264,-0.23002,0.6342830000000000,0.304031,0.672561,59747.095,59749.478
1742703764.961890,,0,Tag,4,5.968,3.694,3.642,6.205,,9.719425,-1.1420680000000000,0.10589600000000000,0.06783300000000000,-0.003071,0.132029,-1293.865344,-478.739264,358.14140800000000,-1293.0,-462.0,382.5,-83.243968,84.883128,139.57328000000000,-0.230021,0.634281,0.30404,0.672559,59767.095,59769.481
1742703764.982320,,0,Tag,4,5.98,3.67,3.626,6.229,,9.698245,-1.148472,0.10999200000000000,0.068354,0.125246,0.11966000000000000,-1286.383232,-485.07062400000000,365.381888,-1285.5,-468.0,390.0,-83.244152,84.873896,139.58328,-0.23003000000000000,0.634274,0.30404,0.672563,59787.095,59789.513
1742703765.000630,,0,Tag,4,5.925,3.677,3.598,6.202,,9.707534000000000,-1.146869,0.10715,-0.002264,-0.070768,0.058552,-1287.872384,-483.36963200000000,360.950432,-1287.0,-466.5,385.5,-83.24439200000000,84.876656,139.580368,-0.23003000000000000,0.634277,0.304039,0.672561,59807.095,59809.477
1742703765.021050,,0,Tag,4,5.973,3.717,3.607,6.187,,9.703938000000000,-1.139781,0.104435,0.138376,0.016271,0.08025500000000000,-1290.8724480000000,-481.8712,361.010592,-1290.0,-465.0,385.5,-83.244432,84.879144,139.57864,-0.230033,0.634276,0.304044,0.672557,59827.095,59829.481
1742703765.041490,,0,Tag,4,5.913,3.712,3.569,6.175,,9.706855,-1.1443700000000000,0.091676,-0.072269,0.027985,0.086973,-1293.860992,-484.665536,356.372928,-1293.0,-468.0,381.0,-83.243904,84.87001600000000,139.588784,-0.230039,0.634266,0.304049,0.672563,59847.095,59849.516
1742703765.061910,,0,Tag,4,5.959,3.682,3.605,6.191,,9.715895,-1.1471720000000000,0.09884900000000000,0.032934,0.033296,0.11577,-1283.372416,-483.36963200000000,360.96147200000000,-1282.5,-466.5,385.5,-83.24393600000000,84.868016,139.591072,-0.230042,0.6342640000000000,0.30405,0.672563,59867.095,59869.477
1742703765.081300,,0,Tag,4,5.964,3.68,3.586,6.184,,9.714442,-1.143913,0.102309,0.067943,-0.098892,0.040061,-1286.379776,-483.50464,363.950944,-1285.5,-466.5,388.5,-83.244368,84.874648,139.58512,-0.230046,0.6342680000000000,0.304054,0.672557,59887.095,59889.515
1742703765.101710,,0,Tag,4,5.999,3.651,3.633,6.173,,9.713546,-1.152788,0.09687800000000000,0.194214,-0.031556,0.11373800000000000,-1293.868544,-483.30211200000000,359.43728,-1293.0,-466.5,384.0,-83.244368,84.876584,139.58406400000000,-0.23005100000000000,0.634267,0.30405900000000000,0.672554,59907.095,59909.518000000000
1742703765.122150,,0,Tag,4,5.916,3.68,3.555,6.193,,9.696792,-1.1386590000000000,0.103112,0.033084000000000000,0.051711,0.098911,-1287.8647040000000,-484.733024,357.88604800000000,-1287.0,-468.0,382.5,-83.24471200000000,84.880944,139.58121600000000,-0.23006,0.634267,0.304067,0.672547,59927.095,59929.479
1742703765.141510,,0,Tag,4,5.949,3.705,3.598,6.144,,9.705853,-1.142835,0.106015,-0.002533,-0.072835,0.1113,-1292.354048,-481.53363200000000,353.51478400000000,-1291.5,-465.0,378.0,-83.245384,84.88492,139.57736,-0.230063,0.6342710000000000,0.304066,0.672542,59947.095,59949.517
1742703765.160900,,0,Tag,4,5.925,3.684,3.588,6.18,,9.722091000000000,-1.151484,0.10460700000000000,0.09639100000000000,0.06944500000000000,0.089311,-1286.368768,-481.80368,359.523168,-1285.5,-465.0,384.0,-83.245768,84.881632,139.580592,-0.230066,0.63427,0.304062,0.6725440000000000,59967.095,59969.514
1742703765.181320,,0,Tag,4,5.944,3.684,3.609,6.155,,9.712266,-1.137394,0.10323400000000000,0.050726,0.00048700000000000000,0.044053000000000000,-1287.854464,-478.536704,353.6608,-1287.0,-462.0,378.0,-83.245296,84.873904,139.588832,-0.230069,0.634263,0.304065,0.672549,59987.095,59989.482
1742703765.201770,,0,Tag,4,5.949,3.656,3.633,6.2,,9.691646,-1.155721,0.09771000000000000,-0.002629,-0.101197,0.11014200000000000,-1286.354304,-480.035168,353.59696000000000,-1285.5,-463.5,378.0,-83.24564,84.88733600000000,139.575232,-0.230065,0.634273,0.304066,0.6725400000000000,60007.095,60009.513
1742703765.221140,,0,Tag,4,5.968,3.626,3.619,6.187,,9.709702,-1.145125,0.09654,0.025553,-0.073016,0.1114,-1286.3623680000000,-474.17635200000000,356.86387200000000,-1285.5,-457.5,381.0,-83.245384,84.894848,139.567952,-0.230063,0.634276,0.304072,0.672535,60027.095,60029.517
1742703765.241560,,0,Tag,4,5.944,3.691,3.53,6.135,,9.719480000000000,-1.147302,0.095291,0.12070300000000000,0.032731000000000000,0.11608200000000000,-1289.3646080000000,-484.733024,357.88240000000000,-1288.5,-468.0,382.5,-83.246056,84.89145600000000,139.571856,-0.230071,0.6342750000000000,0.30407,0.672534,60047.095,60049.483
1742703765.261980,,0,Tag,4,5.928,3.675,3.586,6.205,,9.718274,-1.1486970000000000,0.102536,0.06784900000000000,-0.044373000000000000,0.098643,-1283.372928,-478.87427200000000,361.163968,-1282.5,-462.0,385.5,-83.24556,84.88664,139.577968,-0.23007700000000000,0.634267,0.30407800000000000,0.672536,60067.095,60069.515
1742703765.282440,,0,Tag,4,5.916,3.687,3.593,6.182,,9.694477,-1.1535580000000000,0.103422,-0.086599,-0.015569,0.113317,-1293.864832,-483.234624,357.93888,-1293.0,-466.5,382.5,-83.245848,84.89629600000000,139.567712,-0.230072,0.634276,0.304076,0.67253,60087.095,60089.516
1742703765.300850,,0,Tag,4,5.968,3.623,3.626,6.2,,9.698021000000000,-1.144798,0.09976,-0.002114,-0.000552,0.07903100000000000,-1290.864896,-483.234624,357.94624,-1290.0,-466.5,382.5,-83.246552,84.90432800000000,139.559392,-0.230072,0.634284,0.304074,0.672524,60107.095,60109.478
1742703765.321300,,0,Tag,4,5.954,3.637,3.576,6.157,,9.718251,-1.14478,0.104306,-0.002554,0.023674,0.185686,-1292.368256,-484.800576,359.373472,-1291.5,-468.0,384.0,-83.24628800000000,84.897616,139.56584000000000,-0.230071,0.6342790000000000,0.304071,0.67253,60127.095,60129.517
1742703765.341760,,0,Tag,4,5.976,3.682,3.623,6.184,,9.709680000000000,-1.1439330000000000,0.102257,-0.058608,-0.002672,0.142129,-1286.376064,-483.43712,362.45251200000000,-1285.5,-466.5,387.0,-83.246696,84.89344,139.568256,-0.230064,0.6342830000000000,0.304058,0.672535,60147.095,60149.514
1742703765.362200,,0,Tag,4,5.942,3.677,3.586,6.193,,9.694484,-1.154316,0.10249,-0.001906,-0.016211,0.025559,-1289.3725440000000,-480.372704,361.081792,-1288.5,-463.5,385.5,-83.246376,84.89372,139.56800000000000,-0.230063,0.634282,0.30406,0.672535,60167.095,60169.479
1742703765.381610,,0,Tag,4,5.978,3.701,3.609,6.178,,9.712551,-1.145918,0.10044400000000000,0.068519,0.071279,0.047012,-1292.367744,-489.295936,359.17094400000000,-1291.5,-472.5,384.0,-83.246344,84.887816,139.574144,-0.230066,0.634277,0.30406,0.672539,60187.095,60189.516
1742703765.400970,,0,Tag,4,5.901,3.633,3.586,6.162,,9.714467000000000,-1.145143,0.095632,-0.001959,0.014455000000000000,0.058511,-1292.364032,-490.72688,357.60502400000000,-1291.5,-474.0,382.5,-83.24581600000000,84.884728,139.57745600000000,-0.230065,0.634273,0.30406300000000000,0.672542,60207.095,60209.517
1742703765.421450,,0,Tag,4,5.959,3.64,3.621,6.196,,9.711122,-1.149302,0.106083,0.050248,-0.037721,0.112936,-1289.361792,-477.17328,356.721504,-1288.5,-460.5,381.0,-83.246056,84.88408800000000,139.57806400000000,-0.230066,0.634273,0.30406100000000000,0.672542,60227.095,60229.479
1742703765.441890,,0,Tag,4,5.875,3.651,3.619,6.193,,9.714406,-1.1389210000000000,0.10692,0.011821,-0.001469,0.10018000000000000,-1290.8609280000000,-484.665536,356.380288,-1290.0,-468.0,381.0,-83.24564,84.88469600000000,139.577616,-0.230065,0.634272,0.304064,0.672542,60247.095,60249.515
1742703765.461330,,0,Tag,4,5.954,3.673,3.593,6.16,,9.708737,-1.153823,0.113436,0.225817,-0.004086,0.132592,-1287.86112,-484.665536,356.38764800000000,-1287.0,-468.0,381.0,-83.24556,84.883752,139.58016,-0.230074,0.634267,0.304073,0.672539,60267.095,60269.482
1742703765.481750,,0,Tag,3,5.904,3.705,3.576,,,9.701584,-1.146942,0.105887,-0.001844,0.053315000000000000,0.063621,-1286.357632,-483.099584,354.960352,-1285.5,-466.5,379.5,-83.24536000000000,84.886408,139.57886400000000,-0.23008000000000000,0.6342640000000000,0.304083,0.672535,60287.095,60289.479
1742703765.502200,,0,Tag,4,6.015,3.677,3.635,6.16,,9.706808000000000,-1.145595,0.109015,0.124166,-0.002191,0.10058000000000000,-1290.850304,-481.46611200000000,352.02,-1290.0,-465.0,376.5,-83.24541600000000,84.879696,139.58600000000000,-0.23008500000000000,0.634259,0.304083,0.672539,60307.095,60309.515
1742703765.521600,,0,Tag,4,5.949,3.708,3.623,6.207,,9.72182,-1.146761,0.10850500000000000,0.10311900000000000,-0.001918,0.09698900000000000,-1284.865024,-483.234624,357.960896,-1284.0,-466.5,382.5,-83.245136,84.875984,139.58987200000000,-0.23008600000000000,0.634255,0.30408400000000000,0.672542,60327.095,60329.482
1742703765.541030,,0,Tag,3,5.973,3.682,6.214,,,9.714733000000000,-1.154328,0.100313,-0.002412,-0.037383,0.11274900000000000,-1283.361536,-480.17017600000000,356.60115200000000,-1282.5,-463.5,381.0,-83.245064,84.875712,139.590432,-0.23008700000000000,0.634254,0.30408600000000000,0.6725410000000000,60347.095,60349.478
1742703765.561460,,0,Tag,4,5.885,3.668,3.623,6.2,,9.689713,-1.148127,0.09547400000000000,0.054236,0.000464,0.044066,-1284.850816,-478.46921600000000,352.169696,-1284.0,-462.0,376.5,-83.244024,84.876536,139.58987200000000,-0.23008300000000000,0.634251,0.304093,0.672543,60367.095,60369.515
1742703765.581910,,0,Tag,4,5.973,3.691,3.616,6.16,,9.692081,-1.152934,0.10721400000000000,-0.107376,0.06965100000000000,0.11671800000000000,-1284.8691200000000,-478.80675200000000,359.661856,-1284.0,-462.0,384.0,-83.242808,84.869832,139.596768,-0.23007900000000000,0.634242,0.304098,0.67255,60387.095,60389.478
1742703765.602430,,0,Tag,4,5.911,3.698,3.626,6.234,,9.709902,-1.139901,0.10090300000000000,0.173334,-0.002369,0.09723900000000000,-1286.368768,-481.80368,359.523168,-1285.5,-465.0,384.0,-83.243088,84.860248,139.60624000000000,-0.23008300000000000,0.6342370000000000,0.304093,0.6725560000000000,60407.095,60409.479
1742703765.620770,,0,Tag,4,5.937,3.698,3.612,6.241,,9.722048,-1.139159,0.100288,0.054357000000000000,0.056637,0.060449000000000000,-1289.3688320000000,-480.305216,359.583328,-1288.5,-463.5,384.0,-83.24306400000000,84.855408,139.611888,-0.23009,0.634232,0.304096,0.672557,60427.095,60429.515
1742703765.641190,,0,Tag,4,5.966,3.705,3.6,6.2,,9.699197,-1.138938,0.095945,0.01556,0.086587,0.117879,-1287.879936,-482.00620800000000,364.014816,-1287.0,-465.0,388.5,-83.242712,84.852632,139.614656,-0.230088,0.6342290000000000,0.304097,0.6725600000000000,60447.095,60449.482
1742703765.661610,,0,Tag,4,6.002,3.649,3.588,6.202,,9.701627,-1.15088,0.097633,0.102672,-0.005364,0.18490300000000000,-1290.8611840000000,-483.16707200000000,356.447776,-1290.0,-466.5,381.0,-83.24262400000000,84.844016,139.623328,-0.230091,0.634223,0.304095,0.672566,60467.095,60469.479
1742703765.682050,,0,Tag,4,5.952,3.621,3.579,6.175,,9.719206,-1.143894,0.102361,-0.002578,-0.004135,0.170461,-1295.368704,-481.80368,359.50112000000000,-1294.5,-465.0,384.0,-83.243528,84.838152,139.630064,-0.230103,0.634219,0.304093,0.672565,60487.095,60489.517
1742703765.701440,,0,Tag,4,5.913,3.694,3.651,6.216,,9.728962,-1.14558,0.107337,0.033172,0.0006,0.043991000000000000,-1290.876032,-483.43712,362.441504,-1290.0,-466.5,387.0,-83.243968,84.839224,139.62976,-0.23011000000000000,0.634219,0.304095,0.672562,60507.095,60509.479
1742703765.721850,,0,Tag,4,5.928,3.675,3.63,6.2,,9.693281000000000,-1.1507700000000000,0.10113900000000000,0.12094100000000000,3.6E-05,0.044303000000000000,-1286.376704,-477.44332800000000,362.72256,-1285.5,-460.5,387.0,-83.242856,84.837192,139.632224,-0.23010700000000000,0.6342140000000000,0.304102,0.672565,60527.095,60529.478
1742703765.741210,,0,Tag,4,5.925,3.689,3.558,6.229,,9.693513,-1.147073,0.097397,-0.058608,-0.002672,0.142129,-1289.368704,-481.80368,359.51584000000000,-1288.5,-465.0,384.0,-83.243,84.834504,139.635536,-0.23011200000000000,0.634211,0.304104,0.672565,60547.095,60549.517
1742703765.761690,,0,Tag,4,5.899,3.644,3.614,6.16,,9.733739,-1.15367,0.114908,-0.037220000000000000,0.051473,0.116244,-1292.3544320000000,-477.038272,353.71728000000000,-1291.5,-460.5,378.0,-83.243968,84.82464,139.645296,-0.23012,0.634208,0.304095,0.67257,60567.095,60569.481
1742703765.781100,,0,Tag,4,5.921,3.703,3.621,6.216,,9.721865,-1.1530020000000000,0.102742,-0.037580000000000000,-0.054883000000000000,0.111899,-1286.361344,-483.16707200000000,356.45881600000000,-1285.5,-466.5,381.0,-83.244024,84.824912,139.644352,-0.230117,0.6342100000000000,0.304091,0.67257,60587.095,60589.483
1742703765.801520,,0,Tag,4,5.961,3.668,3.644,6.2,,9.684035,-1.155869,0.094749,0.082729,0.058662,0.004284,-1289.349376,-490.456864,351.618592,-1288.5,-474.0,376.5,-83.24332800000000,84.82898400000000,139.640896,-0.230115,0.634208,0.3041,0.6725680000000000,60607.095,60609.516
1742703765.821930,,0,Tag,4,5.956,3.677,3.593,6.214,,9.696852,-1.147348,0.096243,0.06801300000000000,0.050107,0.134202,-1281.858176,-478.604224,355.173888,-1281.0,-462.0,379.5,-83.243152,84.827176,139.642784,-0.230115,0.634207,0.304101,0.67257,60627.095,60629.482
1742703765.842370,,0,Tag,4,5.937,3.696,3.593,6.202,,9.742064,-1.146725,0.107526,-0.019906,-0.019544,0.11341,-1286.357888,-480.10265600000000,355.09536000000000,-1285.5,-463.5,379.5,-83.24372800000000,84.815696,139.65440000000000,-0.230123,0.634201,0.304095,0.6725750000000000,60647.095,60649.479
1742703765.860690,,0,Tag,4,5.904,3.647,3.562,6.16,,9.728772,-1.148002,0.09494,0.138615,0.056095,0.060749,-1289.36448,-486.23152,357.81488000000000,-1288.5,-469.5,382.5,-83.243208,84.816648,139.65264,-0.230115,0.6342020000000000,0.304093,0.672578,60667.095,60669.514
1742703765.881110,,0,Tag,4,5.94,3.703,3.623,6.184,,9.689693,-1.14493,0.097272,0.068039,-0.07053,0.04122,-1287.8476800000000,-473.906304,350.866496,-1287.0,-457.5,375.0,-83.24190400000000,84.813848,139.65534400000000,-0.23010800000000000,0.634196,0.304099,0.6725830000000000,60687.095,60689.481
1742703765.901530,,0,Tag,4,5.94,3.673,3.616,6.22,,9.701591000000000,-1.148142,0.105933,-0.037220000000000000,0.051473,0.116244,-1286.357632,-483.099584,354.960352,-1285.5,-466.5,379.5,-83.241824,84.815792,139.65256,-0.230102,0.634199,0.304095,0.672584,60707.095,60709.482
1742703765.920920,,0,Tag,4,5.887,3.67,3.616,6.18,,9.732591,-1.1526320000000000,0.099004,0.109525,-0.075762,0.167965,-1286.350848,-478.46921600000000,352.166048,-1285.5,-462.0,376.5,-83.24317600000000,84.81552000000000,139.652208,-0.23010600000000000,0.634205,0.30408400000000000,0.672582,60727.095,60729.516
1742703765.941340,,0,Tag,4,5.861,3.715,3.558,6.157,,9.712298000000000,-1.144594,0.103513,0.06786200000000000,-0.020108000000000000,0.11372300000000000,-1293.880064,-479.00928,364.135136,-1293.0,-462.0,388.5,-83.243616,84.82468,139.64361600000000,-0.23010900000000000,0.634211,0.30408800000000000,0.672574,60747.095,60749.478
1742703765.961750,,0,Tag,4,5.949,3.705,3.654,6.13,,9.690899,-1.15078,0.101113,0.068101,-0.001003,0.07928100000000000,-1292.37184,-487.864992,360.73686400000000,-1291.5,-471.0,385.5,-83.242976,84.81890400000000,139.65003200000000,-0.23011100000000000,0.634203,0.304093,0.672578,60767.095,60769.478
1742703765.982170,,0,Tag,4,5.966,3.682,3.621,6.146,,9.709745,-1.153841,0.094955,0.011535,-0.0036740000000000000,0.156445,-1289.376256,-480.440224,362.580192,-1288.5,-463.5,387.0,-83.243088,84.817032,139.651344,-0.23010900000000000,0.634204,0.304089,0.67258,60787.095,60789.516
1742703766.001550,,0,Tag,4,5.954,3.675,3.595,6.218,,9.725395000000000,-1.1433880000000000,0.10241,0.068101,-0.001003,0.07928100000000000,-1289.365376,-478.739264,358.152448,-1288.5,-462.0,382.5,-83.242688,84.81332000000000,139.654832,-0.23010600000000000,0.634201,0.30408800000000000,0.672584,60807.095,60809.481
1742703766.020900,,0,Tag,4,5.961,3.663,3.518,6.207,,9.70515,-1.1411690000000000,0.099699,-0.055163,-0.037733000000000000,0.13014400000000000,-1290.868224,-486.29904,359.30963200000000,-1290.0,-469.5,384.0,-83.24317600000000,84.81356,139.654656,-0.23011000000000000,0.6342020000000000,0.30408600000000000,0.672582,60827.095,60829.48
1742703766.041330,,0,Tag,4,5.923,3.654,3.612,6.218,,9.693506,-1.148801,0.102267,0.06809,0.067971,0.131409,-1292.357632,-481.60112,355.01318400000000,-1291.5,-465.0,379.5,-83.244608,84.807864,139.661024,-0.230123,0.6342020000000000,0.30408000000000000,0.672581,60847.095,60849.517
1742703766.061750,,0,Tag,4,5.887,3.698,3.6,6.142,,9.700379,-1.141092,0.102045,0.10314700000000000,-0.070756,0.041345,-1287.8540800000000,-481.53363200000000,353.52579200000000,-1287.0,-465.0,378.0,-83.245384,84.80652000000000,139.663008,-0.230132,0.634201,0.30408000000000000,0.672578,60867.095,60869.482
1742703766.082200,,0,Tag,4,5.925,3.67,3.607,6.191,,9.717072,-1.152636,0.11228200000000000,0.032813,-0.053956,0.076984,-1287.85792,-480.10265600000000,355.091712,-1287.0,-463.5,379.5,-83.24602400000000,84.79833600000000,139.671552,-0.23014000000000000,0.634197,0.304075,0.672581,60887.095,60889.482
1742703766.101590,,0,Tag,4,5.935,3.677,3.621,6.229,,9.701139,-1.147119,0.095561,-0.043776000000000000,0.086182,0.047191,-1287.872512,-481.8712,361.017952,-1287.0,-465.0,385.5,-83.246712,84.78489600000000,139.68520000000000,-0.23015,0.6341900000000000,0.304068,0.672588,60907.095,60909.515
1742703766.120940,,0,Tag,4,5.901,3.644,3.607,6.209,,9.699282,-1.1558820000000000,0.092997,0.13802,0.065315,0.18792400000000000,-1290.8576,-483.099584,354.949344,-1290.0,-466.5,379.5,-83.246488,84.782344,139.688256,-0.230153,0.634187,0.304071,0.672589,60927.095,60929.478
1742703766.141350,,0,Tag,4,5.921,3.668,3.602,6.214,,9.722104,-1.149834,0.09781900000000000,0.039692,-0.044744,0.112609,-1290.857728,-481.60112,355.01683200000000,-1290.0,-465.0,379.5,-83.24689600000000,84.77773600000000,139.693296,-0.230159,0.634184,0.30407,0.67259,60947.095,60949.517
1742703766.161790,,0,Tag,4,5.94,3.701,3.567,6.2,,9.722114,-1.150871,0.095938,-0.002031,-0.027535,0.042707000000000000,-1287.8540800000000,-481.53363200000000,353.52579200000000,-1287.0,-465.0,378.0,-83.24678400000000,84.780576,139.690384,-0.230157,0.634185,0.304071,0.672589,60967.095,60969.515
1742703766.181180,,0,Tag,4,5.911,3.691,3.609,6.157,,9.703994,-1.150677,0.10245500000000000,-0.002352,-0.019656,0.11347300000000000,-1292.350336,-481.46611200000000,352.01632,-1291.5,-465.0,376.5,-83.24663200000000,84.787904,139.68224,-0.230149,0.634192,0.30407,0.672586,60987.095,60989.48
1742703766.201590,,0,Tag,4,5.954,3.712,3.562,6.175,,9.693475,-1.1429640000000000,0.103962,0.011990000000000000,0.068884,0.117143,-1283.3655040000000,-478.739264,358.167104,-1282.5,-462.0,382.5,-83.247384,84.77556800000000,139.69432,-0.230156,0.634187,0.30406,0.672593,61007.095,61009.515
1742703766.222000,,0,Tag,4,5.985,3.666,3.63,6.191,,9.715371,-1.145405,0.11294500000000000,0.039571000000000000,-0.10091600000000000,0.09622600000000000,-1290.850944,-475.47232000000000,352.29004800000000,-1290.0,-459.0,376.5,-83.248376,84.77104,139.69952,-0.23016700000000000,0.634185,0.30405700000000000,0.672592,61027.095,61029.517
1742703766.242470,,0,Tag,4,5.942,3.675,3.562,6.236,,9.714657000000000,-1.1442950000000000,0.110732,-0.002382,-0.002619,0.131779,-1286.368896,-480.305216,359.59065600000000,-1285.5,-463.5,384.0,-83.24876000000000,84.77053600000000,139.70064,-0.230173,0.634185,0.30405900000000000,0.67259,61047.095,61049.481
1742703766.260890,,0,Tag,4,5.928,3.67,3.63,6.121,,9.701129,-1.147886,0.100394,0.067826,-0.030743,0.113288,-1286.376704,-477.44332800000000,362.72256,-1285.5,-460.5,387.0,-83.249624,84.772672,139.699296,-0.230181,0.634187,0.30405900000000000,0.672585,61067.095,61069.517
1742703766.281350,,0,Tag,4,5.976,3.708,3.588,6.2,,9.719226000000000,-1.1459680000000000,0.09859900000000000,-0.030736,-0.004506,0.18442800000000000,-1293.865088,-480.237664,358.07392,-1293.0,-463.5,382.5,-83.25044,84.769616,139.70240000000000,-0.230187,0.634187,0.304054,0.672585,61087.095,61089.513
1742703766.301860,,0,Tag,4,5.949,3.712,3.612,6.155,,9.719455,-1.148116,0.104929,-0.037579,-0.003083,0.14923700000000000,-1290.876544,-477.44332800000000,362.711552,-1290.0,-460.5,387.0,-83.25100000000000,84.76012,139.711568,-0.23019200000000000,0.634184,0.304046,0.67259,61107.095,61109.48
1742703766.321250,,0,Tag,4,5.909,3.684,3.52,6.189,,9.70594,-1.158464,0.099895,-0.058609000000000000,-0.044112,0.112259,-1290.88384,-479.0768,365.640928,-1290.0,-462.0,390.0,-83.2516,84.755352,139.71416,-0.230184,0.634188,0.304029,0.672596,61127.095,61129.515
1742703766.341680,,0,Tag,4,5.894,3.694,3.63,6.229,,9.701112,-1.148576,0.10714500000000000,0.08158400000000000,0.0084,0.19947300000000000,-1290.864128,-489.228384,357.67619200000000,-1290.0,-472.5,382.5,-83.25177600000000,84.75048,139.719744,-0.23019100000000000,0.634184,0.30403000000000000,0.672597,61147.095,61149.514
1742703766.362110,,0,Tag,4,5.882,3.659,3.623,6.196,,9.713496,-1.1446860000000000,0.101128,0.015679,0.070239,0.08199,-1290.857088,-487.594944,354.746784,-1290.0,-471.0,379.5,-83.25256,84.756712,139.715168,-0.230203,0.6341860000000000,0.304038,0.672588,61167.095,61169.483
1742703766.381480,,0,Tag,4,5.885,3.651,3.586,6.153,,9.700176000000000,-1.1478900000000000,0.100384,-0.058225,0.069335,0.116893,-1289.3573120000000,-484.598016,354.88550400000000,-1288.5,-468.0,379.5,-83.253112,84.753512,139.717616,-0.230202,0.634188,0.304029,0.67259,61187.095,61189.515
1742703766.400930,,0,Tag,4,5.937,3.698,3.574,6.214,,9.710624,-1.13748,0.09529400000000000,-0.002484,-0.058654,0.11188,-1287.857792,-481.60112,355.02419200000000,-1287.0,-465.0,379.5,-83.253608,84.750344,139.72169600000000,-0.230212,0.634185,0.304031,0.672589,61207.095,61209.517
1742703766.421400,,0,Tag,4,5.952,3.696,3.621,6.241,,9.712312000000000,-1.147042,0.102407,-0.054477,0.036616000000000000,0.045126,-1286.3544320000000,-478.536704,353.66448000000000,-1285.5,-462.0,378.0,-83.253112,84.750896,139.72048000000000,-0.230205,0.634185,0.30403000000000000,0.6725910000000000,61227.095,61229.478
1742703766.441970,,0,Tag,4,5.983,3.659,3.595,6.189,,9.710651,-1.145082,0.097509,-0.030259000000000000,0.012982000000000000,0.10061000000000000,-1296.8545280000000,-477.038272,353.70627200000000,-1296.0,-460.5,378.0,-83.25303200000000,84.748896,139.72169600000000,-0.2302,0.6341860000000000,0.304025,0.6725940000000000,61247.095,61249.514
1742703766.461360,,0,Tag,4,5.899,3.649,3.619,6.2,,9.712315,-1.145939,0.099962,-0.054357000000000000,0.072069,0.046575,-1290.857344,-484.598016,354.881824,-1290.0,-468.0,379.5,-83.252416,84.743952,139.72526400000000,-0.23019000000000000,0.634184,0.304019,0.6726020000000000,61267.095,61269.48
1742703766.481780,,0,Tag,4,5.973,3.609,3.595,6.153,,9.703983,-1.1460220000000000,0.098673,-0.0022920000000000000,-0.0019300000000000000,0.11419700000000000,-1287.8467840000000,-481.39859200000000,350.528928,-1287.0,-465.0,375.0,-83.25177600000000,84.73630400000000,139.73216,-0.230185,0.6341790000000000,0.304016,0.6726100000000000,61287.095,61289.482
1742703766.501150,,0,Tag,4,5.928,3.626,3.621,6.209,,9.704001,-1.148067,0.09563000000000000,-0.07231700000000000,0.013804000000000000,0.086394,-1287.883648,-480.575264,365.580736,-1287.0,-463.5,390.0,-83.25128,84.73132800000000,139.73665600000000,-0.230181,0.634176,0.304014,0.672615,61307.095,61309.513
1742703766.521590,,0,Tag,4,5.937,3.701,3.642,6.218,,9.711071000000000,-1.141862,0.1118,-0.055194,-0.07249700000000000,0.11111300000000000,-1286.361472,-481.66864,356.526304,-1285.5,-465.0,381.0,-83.25221600000000,84.732856,139.732048,-0.23016800000000000,0.634188,0.303993,0.6726180000000000,61327.095,61329.48
1742703766.541000,,0,Tag,4,5.935,3.68,3.64,6.205,,9.701584,-1.146942,0.105887,0.032395,-0.07443900000000000,0.146591,-1289.35808,-478.604224,355.155552,-1288.5,-462.0,379.5,-83.252416,84.734504,139.729424,-0.23016300000000000,0.634192,0.303987,0.6726180000000000,61347.095,61349.481
1742703766.561430,,0,Tag,4,5.899,3.68,3.633,6.191,,9.698269,-1.148781,0.102319,-0.058225,0.069335,0.116893,-1292.364928,-481.73616,358.01008000000000,-1291.5,-465.0,382.5,-83.252968,84.738224,139.726144,-0.23016700000000000,0.634195,0.303988,0.6726140000000000,61367.095,61369.514
1742703766.581870,,0,Tag,4,5.942,3.633,3.626,6.227,,9.698024,-1.1471020000000000,0.102251,-0.01931,0.002316,0.008638,-1283.372928,-478.87427200000000,361.163968,-1282.5,-462.0,385.5,-83.25288000000000,84.7324,139.731712,-0.23016700000000000,0.634192,0.303985,0.6726180000000000,61387.095,61389.479
1742703766.602330,,0,Tag,4,6.002,3.63,3.633,6.216,,9.714682,-1.149143,0.109719,0.067893,0.014655,0.13275300000000000,-1290.87232,-483.36963200000000,360.943072,-1290.0,-466.5,385.5,-83.25156800000000,84.725376,139.737776,-0.230156,0.6341860000000000,0.303984,0.672628,61407.095,61409.477
1742703766.620730,,0,Tag,4,5.928,3.696,3.579,6.216,,9.716378000000000,-1.1515470000000000,0.103586,0.039715,-0.058373000000000000,0.097963,-1287.8649600000000,-483.234624,357.95356800000000,-1287.0,-466.5,382.5,-83.251896,84.73432,139.730064,-0.23016200000000000,0.634189,0.303992,0.672619,61427.095,61429.514
1742703766.641190,,0,Tag,4,5.956,3.68,3.588,6.193,,9.701604,-1.15059,0.10482700000000000,-0.002234,-0.036004,0.077583,-1290.880128,-479.00928,364.142496,-1290.0,-462.0,388.5,-83.2518,84.743352,139.721184,-0.23016000000000000,0.6341940000000000,0.303996,0.672613,61447.095,61449.479
1742703766.661650,,0,Tag,4,5.82,3.717,3.628,6.187,,9.709949,-1.147293,0.096386,-0.020204,-0.004574,0.184465,-1290.868224,-484.800576,359.37715200000000,-1290.0,-468.0,384.0,-83.25282400000000,84.732816,139.73104,-0.23016500000000000,0.634193,0.303984,0.672619,61467.095,61469.478
1742703766.681250,,0,Tag,4,5.98,3.68,3.598,6.148,,9.723021,-1.144838,0.10244000000000000,0.110527,-0.026604,0.000909,-1286.3610880000000,-484.665536,356.391296,-1285.5,-468.0,381.0,-83.253552,84.732232,139.73137600000000,-0.23016800000000000,0.634195,0.30397800000000000,0.6726180000000000,61487.095,61489.514
1742703766.701690,,0,Tag,4,5.942,3.644,3.644,6.209,,9.713494000000000,-1.146941,0.104817,0.032934,0.033296,0.11577,-1292.364928,-483.234624,357.94256000000000,-1291.5,-466.5,382.5,-83.25253600000000,84.730936,139.733248,-0.23016600000000000,0.6341900000000000,0.303986,0.67262,61507.095,61509.479
1742703766.722140,,0,Tag,4,5.923,3.689,3.586,6.191,,9.696852,-1.150755,0.10117800000000000,0.033112000000000000,-0.017126,0.043267,-1286.358144,-478.604224,355.162912,-1285.5,-462.0,379.5,-83.252152,84.739824,139.726256,-0.230172,0.634189,0.304002,0.672611,61527.095,61529.478
1742703766.741520,,0,Tag,4,5.918,3.698,3.614,6.184,,9.704961000000000,-1.153591,0.101617,0.110148,0.067149,0.145625,-1289.36832,-484.800576,359.38080000000000,-1288.5,-468.0,384.0,-83.25253600000000,84.728736,139.73756800000000,-0.230179,0.6341830000000000,0.30399700000000000,0.672617,61547.095,61549.517
1742703766.761940,,0,Tag,4,5.944,3.705,3.586,6.162,,9.724268,-1.155537,0.09926400000000000,0.06827900000000000,0.000374,0.044116000000000000,-1289.354368,-478.536704,353.65712000000000,-1288.5,-462.0,378.0,-83.253232,84.730904,139.736288,-0.23018800000000000,0.634184,0.30399900000000000,0.672612,61567.095,61569.479
1742703766.781310,,0,Tag,4,5.928,3.691,3.576,6.198,,9.712278,-1.138691,0.100883,-0.036924,-0.015296000000000000,0.007851,-1283.3652480000000,-480.237664,358.09961600000000,-1282.5,-463.5,382.5,-83.252296,84.73484000000000,139.73278400000000,-0.230184,0.634182,0.304008,0.672611,61587.095,61589.483
1742703766.800780,,0,Tag,4,5.956,3.661,3.642,6.135,,9.701085000000000,-1.1418950000000000,0.105927,-0.114326,0.07024700000000000,0.102627,-1290.857728,-481.60112,355.01683200000000,-1290.0,-465.0,379.5,-83.2518,84.729328,139.73718400000000,-0.230176,0.63418,0.30400300000000000,0.6726180000000000,61607.095,61609.513
1742703766.821240,,0,Tag,4,5.985,3.661,3.623,6.178,,9.682547,-1.146063,0.09963800000000000,0.06819,-0.000314,0.061699,-1281.860992,-486.164,356.334816,-1281.0,-469.5,381.0,-83.251864,84.722616,139.743424,-0.230176,0.634177,0.303998,0.672623,61627.095,61629.481
1742703766.841750,,0,Tag,4,6.006,3.68,3.581,6.239,,9.703929000000000,-1.140788,0.109278,0.102672,-0.005364,0.18490300000000000,-1287.865472,-478.739264,358.156096,-1287.0,-462.0,382.5,-83.252152,84.72308800000000,139.74296000000000,-0.230178,0.634178,0.303996,0.6726220000000000,61647.095,61649.478
1742703766.862190,,0,Tag,4,5.959,3.668,3.567,6.18,,9.720181,-1.149611,0.10355300000000000,0.053687,-0.059015,0.11208,-1287.854464,-478.536704,353.6608,-1287.0,-462.0,378.0,-83.252968,84.72354400000000,139.743008,-0.230185,0.63418,0.30399500000000000,0.672619,61667.095,61669.512
1742703766.881670,,0,Tag,4,5.995,3.698,3.607,6.16,,9.698022,-1.148205,0.104695,-0.055105000000000000,-0.071807,0.09353,-1283.376384,-480.440224,362.59488,-1282.5,-463.5,387.0,-83.252152,84.720672,139.74641600000000,-0.230184,0.634174,0.30400100000000000,0.6726220000000000,61687.095,61689.477
1742703766.901080,,0,Tag,4,5.956,3.619,3.541,6.236,,9.689749000000000,-1.156977,0.096537,-0.037223,-0.052127,0.041569000000000000,-1283.361408,-481.66864,356.533664,-1282.5,-465.0,381.0,-83.25156800000000,84.720704,139.74456,-0.23017000000000000,0.634177,0.303994,0.672627,61707.095,61709.478
1742703766.921520,,0,Tag,4,5.944,3.654,3.616,6.234,,9.713455,-1.138042,0.10495400000000000,-0.00234,-0.016111,0.113617,-1284.862336,-474.17635200000000,356.86752000000000,-1284.0,-457.5,381.0,-83.25111200000000,84.72787200000000,139.73776000000000,-0.23016800000000000,0.6341790000000000,0.30400100000000000,0.672623,61727.095,61729.514
1742703766.941940,,0,Tag,4,5.892,3.656,3.558,6.184,,9.728992,-1.150476,0.105125,-0.020234,-0.039337,0.165434,-1290.8912640000000,-477.713376,368.70528000000000,-1290.0,-460.5,393.0,-83.251544,84.727952,139.736784,-0.23016500000000000,0.6341830000000000,0.303994,0.672623,61747.095,61749.479
1742703766.961460,,0,Tag,4,5.944,3.682,3.6,6.189,,9.711117,-1.1458470000000000,0.102347,0.120583,-0.0027200000000000000,0.114634,-1289.364992,-481.73616,358.01744000000000,-1288.5,-465.0,382.5,-83.25156800000000,84.727328,139.73688000000000,-0.23016200000000000,0.634184,0.30399,0.6726250000000000,61767.095,61769.477
1742703766.982000,,0,Tag,4,5.932,3.705,3.574,6.191,,9.682991,-1.14293,0.105767,0.06768200000000000,-0.07328600000000000,0.11155,-1295.361152,-483.16707200000000,356.436768,-1294.5,-466.5,381.0,-83.25148,84.731912,139.732272,-0.23016000000000000,0.634187,0.303992,0.6726220000000000,61787.095,61789.515
1742703767.002470,,0,Tag,4,5.961,3.717,3.593,6.162,,9.711075,-1.1396550000000000,0.10691100000000000,-0.125499,-0.072734,0.128446,-1287.8688,-481.80368,359.51948800000000,-1287.0,-465.0,384.0,-83.25282400000000,84.74124000000000,139.72200000000000,-0.230159,0.6342,0.303983,0.672615,61807.095,61809.478
1742703767.020870,,0,Tag,4,5.887,3.673,3.63,6.18,,9.724238,-1.152896,0.105166,0.12070200000000000,-0.019068000000000000,0.078745,-1290.865536,-477.240768,358.21628800000000,-1290.0,-460.5,382.5,-83.25314400000000,84.74448,139.717728,-0.230153,0.6342060000000000,0.303977,0.6726140000000000,61827.095,61829.481
1742703767.041310,,0,Tag,4,5.937,3.656,3.583,6.144,,9.717308,-1.14943,0.108318,-0.044614,-0.058383,0.11173,-1289.3685760000000,-483.30211200000000,359.448288,-1288.5,-466.5,384.0,-83.252616,84.74448,139.717904,-0.230151,0.634203,0.303981,0.672615,61847.095,61849.514
1742703767.061760,,0,Tag,4,5.911,3.616,3.616,6.223,,9.690903000000000,-1.154235,0.104849,-0.019789000000000000,-0.08769200000000000,0.040183000000000000,-1286.361344,-483.16707200000000,356.45881600000000,-1285.5,-466.5,381.0,-83.25192,84.743096,139.718032,-0.23014000000000000,0.634204,0.303977,0.67262,61867.095,61869.479
1742703767.081170,,0,Tag,4,5.918,3.64,3.605,6.218,,9.717106,-1.150815,0.097802,-0.107973,-0.00401,0.18415300000000000,-1292.353664,-484.530528,353.379776,-1291.5,-468.0,378.0,-83.252416,84.739744,139.720544,-0.23014000000000000,0.634205,0.303969,0.6726220000000000,61887.095,61889.478
1742703767.101600,,0,Tag,4,5.947,3.708,3.605,6.169,,9.718303000000000,-1.149966,0.0949,0.096152,0.03998,0.116284,-1289.357184,-486.09651200000000,354.81798400000000,-1288.5,-469.5,379.5,-83.25293600000000,84.738872,139.720448,-0.23013700000000000,0.634209,0.30396,0.672624,61907.095,61909.514
1742703767.122050,,0,Tag,4,6.004,3.673,3.623,6.225,,9.701594,-1.145935,0.101045,0.067981,-0.036456000000000000,0.077833,-1284.842496,-487.32489600000000,348.76777600000000,-1284.0,-471.0,373.5,-83.252768,84.748384,139.711616,-0.23013700000000000,0.634213,0.30396800000000000,0.672617,61927.095,61929.48
1742703767.141400,,0,Tag,4,5.937,3.691,3.609,6.146,,9.701121000000000,-1.145966,0.10032000000000000,0.138495,-7.6E-05,0.044366000000000000,-1286.3504640000000,-481.46611200000000,352.031008,-1285.5,-465.0,376.5,-83.253056,84.749048,139.712288,-0.230146,0.634211,0.30397400000000000,0.672613,61947.095,61949.514
1742703767.160810,,0,Tag,4,5.995,3.677,3.562,6.229,,9.710588,-1.142468,0.1147,0.06804,-0.029089,0.07109,-1287.8616320000000,-480.17017600000000,356.590144,-1287.0,-463.5,381.0,-83.25253600000000,84.751736,139.711728,-0.230155,0.634205,0.303989,0.672608,61967.095,61969.516
1742703767.181270,,0,Tag,4,5.925,3.656,3.63,6.171,,9.711115,-1.144695,0.101102,0.015618,0.000713,0.043928000000000000,-1284.857728,-481.60112,355.031552,-1284.0,-465.0,379.5,-83.25227200000000,84.749392,139.715056,-0.23016000000000000,0.6342,0.303996,0.672608,61987.095,61989.482
1742703767.201740,,0,Tag,4,5.925,3.694,3.595,6.227,,9.709667,-1.1437790000000000,0.106094,-0.002103,-0.028087000000000000,0.056773,-1287.862016,-475.674848,356.79270400000000,-1287.0,-459.0,381.0,-83.25151200000000,84.74968800000000,139.714768,-0.230156,0.6341980000000000,0.304,0.6726100000000000,62007.095,62009.514
1742703767.221130,,0,Tag,4,5.901,3.708,3.668,6.187,,9.705891,-1.142415,0.09255,-0.030571000000000000,-0.058473,0.11178000000000000,-1286.342656,-485.82643200000000,348.831648,-1285.5,-469.5,373.5,-83.25206400000000,84.75816000000000,139.706096,-0.230155,0.634205,0.303998,0.672603,62027.095,62029.515
1742703767.241560,,0,Tag,4,5.916,3.677,3.572,6.22,,9.711118000000000,-1.144744,0.09990300000000000,0.067865,0.083492,0.18839800000000000,-1287.8728960000000,-478.87427200000000,361.15296,-1287.0,-462.0,385.5,-83.253208,84.75644,139.70817600000000,-0.23016400000000000,0.634207,0.303994,0.672601,62047.095,62049.48
1742703767.262020,,0,Tag,4,5.897,3.684,3.649,6.155,,9.718272000000000,-1.147776,0.10154000000000000,-0.002436,-0.044473,0.11245900000000000,-1283.3655040000000,-478.739264,358.167104,-1282.5,-462.0,382.5,-83.253232,84.753168,139.710992,-0.23016200000000000,0.6342060000000000,0.30399,0.672604,62067.095,62069.514
1742703767.281510,,0,Tag,4,5.94,3.628,3.602,6.184,,9.704943,-1.146104,0.096525,0.012107,0.000735,0.043916,-1286.364544,-487.729984,357.754688,-1285.5,-471.0,382.5,-83.25308800000000,84.759232,139.704928,-0.230159,0.6342100000000000,0.303993,0.6726,62087.095,62089.514
1742703767.300920,,0,Tag,4,5.947,3.642,3.637,6.209,,9.694386,-1.138332,0.111479,-0.020114,-0.003885,0.166882,-1292.364928,-481.73616,358.01008000000000,-1291.5,-465.0,382.5,-83.25256,84.756384,139.708304,-0.23016100000000000,0.634205,0.303998,0.672603,62107.095,62109.482
1742703767.321450,,0,Tag,4,5.909,3.689,3.583,6.121,,9.701104000000000,-1.144852,0.10412000000000000,0.053736,-0.003394,0.142529,-1290.861952,-475.674848,356.785344,-1290.0,-459.0,381.0,-83.253688,84.74739200000000,139.718928,-0.23018,0.6341980000000000,0.303998,0.6726020000000000,62127.095,62129.516
1742703767.341910,,0,Tag,4,5.93,3.684,3.623,6.18,,9.705872,-1.1503220000000000,0.111108,0.011607,-0.003123,0.142379,-1290.8609280000000,-484.665536,356.380288,-1290.0,-468.0,381.0,-83.254072,84.7448,139.721632,-0.230183,0.634197,0.30399500000000000,0.672603,62147.095,62149.516
1742703767.361360,,0,Tag,4,5.942,3.71,3.572,6.2,,9.712284,-1.139891,0.10092900000000000,0.050068000000000000,-0.0909,0.110764,-1289.372032,-484.868064,360.879232,-1288.5,-468.0,385.5,-83.253456,84.752016,139.7148,-0.23018,0.634199,0.30400300000000000,0.672599,62167.095,62169.481
1742703767.381820,,0,Tag,4,5.947,3.687,3.651,6.209,,9.698311,-1.153851,0.09579,-0.001957,0.055895,0.088381,-1287.85728,-486.09651200000000,354.821664,-1287.0,-469.5,379.5,-83.253608,84.752544,139.714656,-0.230182,0.634199,0.30400500000000000,0.672597,62187.095,62189.516
1742703767.401270,,0,Tag,4,5.976,3.684,3.637,6.182,,9.720176,-1.146846,0.100565,-0.044566,-0.044202,0.11230900000000000,-1293.854464,-477.038272,353.71363200000000,-1293.0,-460.5,378.0,-83.25380800000000,84.759648,139.70776,-0.230182,0.634204,0.30400700000000000,0.672592,62207.095,62209.515
1742703767.421730,,0,Tag,4,5.971,3.694,3.595,6.166,,9.715879,-1.1401650000000000,0.093775,0.0152,-0.019769,0.113535,-1287.8613760000000,-483.16707200000000,356.455136,-1287.0,-466.5,381.0,-83.254032,84.768064,139.698768,-0.230178,0.634211,0.30400500000000000,0.6725870000000000,62227.095,62229.478
1742703767.441190,,0,Tag,4,5.94,3.687,3.616,6.243,,9.709699000000000,-1.1441650000000000,0.09650300000000000,-0.071936,0.002931,0.0014170000000000000,-1290.854144,-480.035168,353.58595200000000,-1290.0,-463.5,378.0,-83.253496,84.77376800000000,139.692896,-0.230171,0.6342140000000000,0.304009,0.672585,62247.095,62249.514
1742703767.461650,,0,Tag,4,5.949,3.675,3.659,6.184,,9.695635,-1.147015,0.104623,0.085476,-0.0024940000000000000,0.114509,-1283.350528,-479.967648,352.10585600000000,-1282.5,-463.5,376.5,-83.253496,84.77116,139.696,-0.230175,0.634211,0.304011,0.672586,62267.095,62269.482
1742703767.482170,,0,Tag,4,5.971,3.687,3.605,6.162,,9.70163,-1.147521,0.091499,-0.055105000000000000,-0.071807,0.09353,-1290.8651520000000,-480.237664,358.08124800000000,-1290.0,-463.5,382.5,-83.253176,84.774856,139.69214400000000,-0.230171,0.634212,0.304013,0.672584,62287.095,62289.478
1742703767.501680,,0,Tag,4,5.918,3.605,3.649,6.18,,9.704954000000000,-1.1507890000000000,0.099588,-0.058154,0.028446,0.072957,-1283.3582080000000,-478.604224,355.17024,-1282.5,-462.0,379.5,-83.253256,84.777168,139.688192,-0.23016100000000000,0.634219,0.30400500000000000,0.672586,62307.095,62309.516
1742703767.521140,,0,Tag,4,5.913,3.626,3.588,6.207,,9.713534,-1.148575,0.09407300000000000,0.032546,-0.004223,0.16707,-1286.361472,-481.66864,356.526304,-1285.5,-465.0,381.0,-83.253456,84.77382400000000,139.69172800000000,-0.23016500000000000,0.6342170000000000,0.30400300000000000,0.6725870000000000,62327.095,62329.479
1742703767.541610,,0,Tag,4,5.93,3.689,3.621,6.261,,9.707560000000000,-1.146055,0.097513,0.015348000000000000,-0.053154,0.059339000000000000,-1283.36832,-486.29904,359.327968,-1282.5,-469.5,384.0,-83.253,84.77758400000000,139.687888,-0.23016000000000000,0.634218,0.30400700000000000,0.672586,62347.095,62349.482
1742703767.562130,,0,Tag,4,5.904,3.689,3.595,6.142,,9.701112,-1.14585,0.103197,0.12378400000000000,-0.032758000000000000,0.155687,-1290.87296,-477.375808,361.21312,-1290.0,-460.5,385.5,-83.25364000000000,84.778584,139.68633600000000,-0.23016100000000000,0.634222,0.30400100000000000,0.672585,62367.095,62369.516
1742703767.581600,,0,Tag,4,5.954,3.715,3.619,6.157,,9.696833,-1.1471070000000000,0.102238,0.015350000000000000,-0.001354,0.096676,-1293.876096,-481.93868800000000,362.501664,-1293.0,-465.0,387.0,-83.254032,84.77779200000000,139.68724800000000,-0.23016400000000000,0.634222,0.30399900000000000,0.672584,62387.095,62389.482
1742703767.601050,,0,Tag,4,5.952,3.698,3.626,6.211,,9.715848,-1.14429,0.110745,-0.019846,-0.0018170000000000000,0.114134,-1295.372416,-481.8712,360.99958400000000,-1294.5,-465.0,385.5,-83.25470400000000,84.767584,139.6968,-0.23016700000000000,0.63422,0.303988,0.6725910000000000,62407.095,62409.477
1742703767.621520,,0,Tag,4,5.904,3.654,3.572,6.211,,9.714459,-1.150479,0.106406,0.026007,-0.000457,0.072098,-1286.3641600000000,-490.72688,357.61968000000000,-1285.5,-474.0,382.5,-83.254824,84.765664,139.698592,-0.23016800000000000,0.634219,0.303986,0.672592,62427.095,62429.514
1742703767.642100,,0,Tag,4,5.923,3.63,3.576,6.196,,9.693283,-1.1496660000000000,0.09869500000000000,-0.07239,-0.069627,0.04072,-1290.868224,-484.800576,359.37715200000000,-1290.0,-468.0,384.0,-83.254448,84.77490400000000,139.688224,-0.230156,0.634227,0.303985,0.672589,62447.095,62449.479
1742703767.661480,,0,Tag,4,5.913,3.656,3.567,6.214,,9.696847,-1.1473,0.097442,-0.019877,-0.036581000000000000,0.095103,-1281.865472,-478.739264,358.17078400000000,-1281.0,-462.0,382.5,-83.25392,84.771424,139.69017600000000,-0.230145,0.634227,0.30397800000000000,0.672596,62467.095,62469.479
1742703767.681900,,0,Tag,4,5.923,3.675,3.583,6.225,,9.723089,-1.15751,0.09812600000000000,-0.002675,-0.07393800000000000,0.139433,-1289.36832,-484.800576,359.38080000000000,-1288.5,-468.0,384.0,-83.253728,84.77588,139.685296,-0.23014000000000000,0.63423,0.303979,0.6725940000000000,62487.095,62489.518000000000
1742703767.701260,,0,Tag,4,5.964,3.689,3.586,6.137,,9.706405,-1.156715,0.101514,-0.002352,-0.019656,0.11347300000000000,-1284.847104,-478.401664,350.671296,-1284.0,-462.0,375.0,-83.25384800000000,84.78394400000000,139.67744,-0.23013900000000000,0.634235,0.303982,0.672588,62507.095,62509.48
1742703767.721690,,0,Tag,4,5.971,3.637,3.607,6.164,,9.714706,-1.148329,0.10008100000000000,-0.0020830000000000000,0.03421,0.098062,-1281.861504,-481.66864,356.537312,-1281.0,-465.0,381.0,-83.25343200000000,84.784184,139.67672,-0.23013400000000000,0.634236,0.303981,0.67259,62527.095,62529.48
1742703767.741140,,0,Tag,4,5.976,3.691,3.588,6.153,,9.690616,-1.141133,0.101939,0.053521,-0.0050480000000000000,0.184728,-1290.847104,-478.401664,350.656608,-1290.0,-462.0,375.0,-83.254008,84.781736,139.678832,-0.23013600000000000,0.6342370000000000,0.30397600000000000,0.6725910000000000,62547.095,62549.514
1742703767.761560,,0,Tag,4,5.913,3.663,3.614,6.223,,9.701555000000000,-1.138639,0.10316400000000000,-0.002202,0.050558,0.133952,-1290.865408,-478.739264,358.14876800000000,-1290.0,-462.0,382.5,-83.255184,84.779144,139.681808,-0.230146,0.634238,0.303971,0.672589,62567.095,62569.481
1742703767.781980,,0,Tag,4,5.961,3.661,3.623,6.144,,9.715871,-1.142324,0.09986200000000000,-0.019906,-0.019544,0.11341,-1292.349952,-484.463008,351.88128,-1291.5,-468.0,376.5,-83.25567200000000,84.76738400000000,139.692848,-0.230148,0.6342330000000000,0.30396,0.672597,62587.095,62589.479
1742703767.801350,,0,Tag,4,5.928,3.68,3.633,6.205,,9.704926,-1.147716,0.10427200000000000,0.011558000000000000,-0.058744,0.11193,-1280.3584000000000,-477.10576,355.245088,-1279.5,-460.5,379.5,-83.25567200000000,84.768512,139.692288,-0.230151,0.6342330000000000,0.303964,0.6725950000000000,62607.095,62609.513
1742703767.821810,,0,Tag,4,5.992,3.698,3.626,6.234,,9.686119,-1.146048,0.099677,-0.002741,-0.057176,0.164773,-1283.361792,-478.67171200000000,356.66867200000000,-1282.5,-462.0,381.0,-83.255096,84.7782,139.68344,-0.23015,0.634235,0.303975,0.672588,62627.095,62629.479
1742703767.841250,,0,Tag,4,5.961,3.595,3.619,6.133,,9.707535,-1.1412070000000000,0.098526,0.172528,-0.112172,0.180808,-1284.8727040000000,-480.372704,361.0928,-1284.0,-463.5,385.5,-83.25576,84.784296,139.678304,-0.230157,0.634238,0.30397800000000000,0.672581,62647.095,62649.48
1742703767.861670,,0,Tag,4,5.944,3.701,3.633,6.198,,9.726850000000000,-1.1487,0.101671,0.039741,0.010876,0.143058,-1284.865536,-478.739264,358.163456,-1284.0,-462.0,382.5,-83.256312,84.79381600000000,139.670128,-0.23016500000000000,0.634243,0.303986,0.67257,62667.095,62669.514
1742703767.882080,,0,Tag,4,5.947,3.659,3.595,6.227,,9.713573,-1.154719,0.090708,-0.037400000000000000,-0.001704,0.11407200000000000,-1289.372032,-484.868064,360.879232,-1288.5,-468.0,385.5,-83.256344,84.795064,139.66947200000000,-0.23016800000000000,0.634242,0.30399,0.6725680000000000,62687.095,62689.485
1742703767.901440,,0,Tag,4,5.882,3.673,3.59,6.187,,9.695627,-1.1435120000000000,0.102086,0.050787,0.07001400000000000,0.082115,-1281.861888,-477.17328,356.739872,-1281.0,-460.5,381.0,-83.256632,84.797488,139.666672,-0.23016700000000000,0.634246,0.303987,0.6725670000000000,62707.095,62709.479
1742703767.922020,,0,Tag,4,5.88,3.727,3.628,6.205,,9.718227000000000,-1.1381380000000000,0.102128,-0.0025560000000000000,-0.059205,0.125946,-1289.3725440000000,-480.372704,361.081792,-1288.5,-463.5,385.5,-83.256512,84.799008,139.66528,-0.23016600000000000,0.634246,0.303989,0.672566,62727.095,62729.514
1742703767.941470,,0,Tag,4,5.942,3.691,3.605,6.139,,9.723057000000000,-1.150742,0.099066,0.067503,-0.074665,0.14671600000000000,-1289.36896,-478.80675200000000,359.650848,-1288.5,-462.0,384.0,-83.25709600000000,84.80498400000000,139.659744,-0.23017000000000000,0.63425,0.30399,0.6725600000000000,62747.095,62749.478
1742703767.961940,,0,Tag,4,5.899,3.675,3.614,6.211,,9.700377,-1.1490100000000000,0.11435900000000000,0.06827900000000000,0.000374,0.044116000000000000,-1286.372224,-484.868064,360.886592,-1285.5,-468.0,385.5,-83.256832,84.813104,139.651616,-0.23016600000000000,0.634255,0.303994,0.672555,62767.095,62769.479
1742703767.981420,,0,Tag,4,5.976,3.64,3.619,6.191,,9.690685,-1.153805,0.09762500000000000,-0.002533,-0.072835,0.1113,-1283.36512,-481.73616,358.03209600000000,-1282.5,-465.0,382.5,-83.25578400000000,84.817432,139.64828800000000,-0.23016400000000000,0.6342520000000000,0.304006,0.672553,62787.095,62789.514
1742703768.001900,,0,Tag,4,5.942,3.619,3.623,6.153,,9.705193,-1.148513,0.09638,0.032217000000000000,-0.075817,0.181756,-1287.860864,-487.66243200000000,356.252608,-1287.0,-471.0,381.0,-83.256368,84.826064,139.639312,-0.23016300000000000,0.6342600000000000,0.304004,0.672547,62807.095,62809.481
1742703768.021350,,0,Tag,4,5.966,3.675,3.572,6.146,,9.7266,-1.1514930000000000,0.109941,0.015528,2.3E-05,0.061511000000000000,-1290.865536,-477.240768,358.21628800000000,-1290.0,-460.5,382.5,-83.25692,84.824168,139.640176,-0.23016000000000000,0.634263,0.30399500000000000,0.672549,62827.095,62829.479
1742703768.040800,,0,Tag,4,5.899,3.719,3.616,6.196,,9.719192,-1.142818,0.10520200000000000,0.053736,-0.003394,0.142529,-1287.869184,-478.80675200000000,359.654496,-1287.0,-462.0,384.0,-83.257128,84.828608,139.63499200000000,-0.230156,0.634269,0.303991,0.672547,62847.095,62849.513
1742703768.061230,,0,Tag,4,5.973,3.705,3.579,6.205,,9.690883,-1.1471800000000000,0.100974,0.01559,0.06955,0.099573,-1287.8540800000000,-481.53363200000000,353.52579200000000,-1287.0,-465.0,378.0,-83.258152,84.83116,139.63312,-0.23016400000000000,0.634272,0.303991,0.6725410000000000,62867.095,62869.477
1742703768.081790,,0,Tag,4,5.904,3.675,3.626,6.153,,9.720624000000000,-1.145567,0.108446,-0.125169,-0.00114,0.113759,-1293.857536,-483.099584,354.941984,-1293.0,-466.5,379.5,-83.257712,84.821208,139.642608,-0.23016300000000000,0.634265,0.303987,0.67255,62887.095,62889.48
1742703768.101820,,0,Tag,4,5.968,3.654,3.642,6.218,,9.713454000000000,-1.1407290000000000,0.109861,0.109979,-0.044644000000000000,0.09879300000000000,-1284.842752,-484.327968,348.902816,-1284.0,-468.0,373.5,-83.257592,84.82728,139.636048,-0.230157,0.63427,0.303987,0.672547,62907.095,62909.516
1742703768.121880,,0,Tag,4,5.954,3.607,3.614,6.166,,9.700423000000000,-1.149588,0.09997200000000000,-0.019458,0.035701,0.062834,-1286.358272,-477.10576,355.2304,-1285.5,-460.5,379.5,-83.256832,84.826664,139.638608,-0.23016400000000000,0.634262,0.304002,0.672545,62927.095,62929.478
1742703768.142680,,0,Tag,4,5.98,3.668,3.605,6.209,,9.700171,-1.14693,0.10034700000000000,0.01175,-0.00202,0.114247,-1286.350592,-479.967648,352.098496,-1285.5,-463.5,376.5,-83.25512000000000,84.82712,139.63753600000000,-0.230151,0.634259,0.30400700000000000,0.672551,62947.095,62949.516
1742703768.161650,,0,Tag,3,5.997,3.701,3.588,,,9.703065000000000,-1.150989,0.094771,0.011295,-0.07457900000000000,0.153549,-1287.853952,-483.032064,353.45827200000000,-1287.0,-466.5,378.0,-83.255264,84.83020000000000,139.63510400000000,-0.230155,0.634259,0.304011,0.672547,62967.095,62969.514
1742703768.180980,,0,Tag,4,5.978,3.698,3.649,6.209,,9.713526,-1.150734,0.100161,0.067742,-0.05556,0.112274,-1292.3577600000000,-480.10265600000000,355.08070400000000,-1291.5,-463.5,379.5,-83.255376,84.83496800000000,139.62976,-0.23015,0.6342640000000000,0.304009,0.672545,62987.095,62989.482
1742703768.201420,,0,Tag,4,5.911,3.694,3.619,6.202,,9.713481,-1.141076,0.101228,0.06768200000000000,-0.07328600000000000,0.11155,-1284.847104,-478.401664,350.671296,-1284.0,-462.0,375.0,-83.255056,84.836496,139.62880000000000,-0.230151,0.634263,0.304014,0.672543,63007.095,63009.517
1742703768.221780,,0,Tag,4,5.976,3.687,3.598,6.225,,9.706799,-1.142754,0.107944,-0.029973,0.015187000000000000,0.044345000000000000,-1287.8656000000000,-477.240768,358.223616,-1287.0,-460.5,382.5,-83.255056,84.838664,139.62553600000000,-0.230144,0.634267,0.304009,0.6725440000000000,63027.095,63029.514
1742703768.241130,,0,Tag,4,5.923,3.626,3.609,6.184,,9.707547,-1.1447590000000000,0.099864,0.015082,-0.003421,0.149425,-1286.372224,-484.868064,360.886592,-1285.5,-468.0,385.5,-83.255056,84.83432000000000,139.630864,-0.230151,0.634262,0.304013,0.672545,63047.095,63049.477
1742703768.261540,,0,Tag,4,5.973,3.677,3.612,6.146,,9.71064,-1.147653,0.105294,0.08241900000000000,0.070086,0.075194,-1287.861888,-477.17328,356.725152,-1287.0,-460.5,381.0,-83.254216,84.829968,139.635744,-0.230151,0.634255,0.304019,0.672549,63067.095,63069.513
1742703768.282060,,0,Tag,4,5.949,3.691,3.616,6.16,,9.713512,-1.146952,0.098574,-0.072556,-0.01566,0.113367,-1287.87584,-484.935584,362.38134400000000,-1287.0,-468.0,387.0,-83.254216,84.834744,139.630896,-0.230149,0.634258,0.30402,0.672546,63087.095,63089.514
1742703768.302530,,0,Tag,4,5.93,3.673,3.626,6.178,,9.698049,-1.146288,0.092613,0.103088,-0.036681,0.077958,-1292.364928,-481.73616,358.01008000000000,-1291.5,-465.0,382.5,-83.25375200000000,84.841888,139.623872,-0.230145,0.634261,0.30402600000000000,0.672542,63107.095,63109.48
1742703768.320920,,0,Tag,4,5.909,3.705,3.6,6.16,,9.702119,-1.156522,0.100739,-0.142796,-0.043019000000000000,0.097893,-1292.3617280000000,-478.67171200000000,356.646624,-1291.5,-462.0,381.0,-83.253728,84.84588,139.618784,-0.23013700000000000,0.634266,0.304021,0.672542,63127.095,63129.515
1742703768.341380,,0,Tag,4,5.961,3.701,3.644,6.139,,9.724003,-1.147945,0.09680700000000000,0.081894,-0.003023,0.12856300000000000,-1286.368256,-486.29904,359.32064000000000,-1285.5,-469.5,384.0,-83.25375200000000,84.849784,139.613776,-0.230129,0.634272,0.304016,0.672542,63147.095,63149.513
1742703768.361810,,0,Tag,3,5.892,3.644,6.22,,,9.713507,-1.143678,0.096286,-0.00265,-0.004687,0.184528,-1290.861312,-481.66864,356.515296,-1290.0,-465.0,381.0,-83.253776,84.853032,139.61038400000000,-0.230128,0.634274,0.304016,0.6725400000000000,63167.095,63169.482
1742703768.381230,,0,Tag,4,5.964,3.63,3.644,6.205,,9.713507,-1.145953,0.099496,-0.030929000000000000,-0.10267,0.15224,-1289.3646080000000,-484.733024,357.88240000000000,-1288.5,-468.0,382.5,-83.254656,84.848792,139.61505600000000,-0.23013600000000000,0.634273,0.304013,0.672539,63187.095,63189.517
1742703768.401700,,0,Tag,4,5.904,3.696,3.595,6.211,,9.701143,-1.149883,0.09855,0.053567,-0.073747,0.12556700000000000,-1289.360768,-487.66243200000000,356.248928,-1288.5,-471.0,381.0,-83.255184,84.855656,139.60696,-0.23013,0.634282,0.30400500000000000,0.672536,63207.095,63209.514
1742703768.422180,,0,Tag,4,5.892,3.675,3.595,6.205,,9.696809,-1.147921,0.11187600000000000,-0.019905,0.032256,0.150748,-1286.346368,-485.89395200000000,350.33008,-1285.5,-469.5,375.0,-83.256224,84.85515200000000,139.60715200000000,-0.23013400000000000,0.634286,0.303998,0.672535,63227.095,63229.478
1742703768.441570,,0,Tag,4,5.935,3.71,3.621,6.144,,9.712493,-1.139734,0.110773,0.012299,0.057459000000000000,0.046233000000000000,-1283.3504,-481.46611200000000,352.038368,-1282.5,-465.0,376.5,-83.257008,84.85628800000000,139.6072,-0.230145,0.634286,0.30400100000000000,0.6725290000000000,63247.095,63249.514
1742703768.461990,,0,Tag,4,5.906,3.687,3.612,6.144,,9.721121,-1.144923,0.100501,0.011941,0.013262,0.086694,-1292.372864,-478.87427200000000,361.141952,-1291.5,-462.0,385.5,-83.25576,84.8484,139.61588800000000,-0.230145,0.6342750000000000,0.304009,0.672536,63267.095,63269.517
1742703768.481370,,0,Tag,4,5.968,3.659,3.647,6.182,,9.703988000000000,-1.152884,0.107343,0.032844,-0.019193000000000000,0.09601500000000000,-1283.350528,-479.967648,352.10585600000000,-1282.5,-463.5,376.5,-83.255144,84.847,139.617008,-0.23014100000000000,0.634273,0.30401,0.672539,63287.095,63289.477
1742703768.501840,,0,Tag,3,3.626,3.551,6.211,,,9.700212000000000,-1.151079,0.092822,-0.030928000000000000,-0.06123,0.182111,-1284.8578560000000,-480.10265600000000,355.099072,-1284.0,-463.5,379.5,-83.25564,84.85704,139.606416,-0.23013700000000000,0.6342830000000000,0.304008,0.672532,63307.095,63309.514
1742703768.521320,,0,Tag,4,5.968,3.698,3.663,6.126,,9.717118,-1.1521110000000000,0.09545,0.06807000000000000,-0.035767,0.06025,-1289.3725440000000,-480.372704,361.081792,-1288.5,-463.5,385.5,-83.255696,84.84660800000000,139.61616,-0.23013700000000000,0.634278,0.304,0.6725400000000000,63327.095,63329.48
1742703768.541780,,0,Tag,4,5.918,3.68,3.6,6.162,,9.724226,-1.1481920000000000,0.102583,0.050368000000000000,-0.0022690000000000000,0.114384,-1290.873088,-475.87737600000000,361.28064,-1290.0,-459.0,385.5,-83.255848,84.851456,139.61212800000000,-0.23014100000000000,0.6342790000000000,0.304006,0.672535,63347.095,63349.478
1742703768.562310,,0,Tag,4,5.937,3.708,3.633,6.139,,9.714424,-1.1436820000000000,0.108064,-0.016289000000000000,-0.029099,0.084856,-1286.354688,-475.53984000000000,353.799488,-1285.5,-459.0,378.0,-83.25572800000000,84.85150400000000,139.612064,-0.23014000000000000,0.6342790000000000,0.304006,0.672536,63367.095,63369.515
1742703768.580680,,0,Tag,4,5.925,3.708,3.621,6.155,,9.694474,-1.143999,0.090084,0.050427,-0.036343,0.07777100000000000,-1295.365376,-478.739264,358.13776000000000,-1294.5,-462.0,382.5,-83.25599200000000,84.849336,139.613872,-0.23014000000000000,0.6342790000000000,0.304002,0.6725370000000000,63387.095,63389.479
1742703768.601190,,0,Tag,4,5.897,3.656,3.605,6.2,,9.690912000000000,-1.149821,0.09507200000000000,-0.036983000000000000,0.018777,0.044465,-1284.883584,-482.07372800000000,365.520576,-1284.0,-465.0,390.0,-83.255872,84.844072,139.619632,-0.230144,0.634274,0.304004,0.6725400000000000,63407.095,63409.478
1742703768.621670,,0,Tag,4,5.873,3.635,3.616,6.196,,9.72872,-1.148229,0.113201,-0.030524,-0.08573300000000000,0.08248900000000000,-1289.376,-483.43712,362.445152,-1288.5,-466.5,387.0,-83.254984,84.83929600000000,139.62401600000000,-0.23013800000000000,0.63427,0.30400500000000000,0.672546,63427.095,63429.518000000000
1742703768.641140,,0,Tag,4,5.861,3.694,3.605,6.2,,9.738564,-1.161236,0.10564600000000000,0.067414,-0.07535400000000000,0.164299,-1292.358272,-475.607328,355.283232,-1291.5,-459.0,379.5,-83.254592,84.834336,139.62860800000000,-0.23013600000000000,0.634266,0.30400300000000000,0.672551,63447.095,63449.483
1742703768.661600,,0,Tag,4,5.877,3.675,3.593,6.234,,9.697990000000000,-1.1387510000000000,0.100727,0.050011,-0.005025,0.184715,-1293.86752,-492.292832,359.032224,-1293.0,-475.5,384.0,-83.25546400000000,84.841608,139.62158400000000,-0.23014000000000000,0.634273,0.304002,0.672543,63467.095,63469.482
1742703768.682050,,0,Tag,4,5.897,3.689,3.659,6.196,,9.700135,-1.139212,0.101009,-0.016432,-0.030202,0.11298800000000000,-1286.3610880000000,-484.665536,356.391296,-1285.5,-468.0,381.0,-83.256112,84.843296,139.619632,-0.23014100000000000,0.634277,0.303998,0.6725410000000000,63487.095,63489.516
1742703768.702570,,0,Tag,4,5.935,3.68,3.623,6.198,,9.701551,-1.140846,0.108053,0.067802,-0.037834,0.11299900000000000,-1284.85376,-484.530528,353.39811200000000,-1284.0,-468.0,378.0,-83.25680800000000,84.850256,139.61270400000000,-0.230143,0.6342830000000000,0.30399700000000000,0.672535,63507.095,63509.48
1742703768.720900,,0,Tag,4,5.932,3.649,3.59,6.2,,9.728965000000000,-1.1410690000000000,0.09995800000000000,-0.072839,-0.124873,0.091295,-1286.3537920000000,-484.530528,353.394432,-1285.5,-468.0,378.0,-83.256864,84.853456,139.608896,-0.23013900000000000,0.6342870000000000,0.303994,0.672534,63527.095,63529.482
1742703768.741340,,0,Tag,4,5.916,3.661,3.623,6.121,,9.716332,-1.143713,0.107126,0.08179500000000000,-0.11426600000000000,0.067664,-1290.846848,-479.900128,350.589088,-1290.0,-463.5,375.0,-83.25704000000000,84.869936,139.592448,-0.23013400000000000,0.6342980000000000,0.30399900000000000,0.672523,63547.095,63549.516
1742703768.761770,,0,Tag,4,5.916,3.696,3.598,6.153,,9.694494000000000,-1.1567160000000000,0.102583,0.033052,-0.034852,0.042543,-1296.864896,-483.234624,357.931552,-1296.0,-466.5,382.5,-83.256664,84.874776,139.588304,-0.23013500000000000,0.6342980000000000,0.304006,0.672519,63567.095,63569.483
1742703768.782230,,0,Tag,4,5.937,3.666,3.623,6.198,,9.695677,-1.155463,0.103749,0.067565,-0.005138000000000000,0.184778,-1289.361024,-484.665536,356.383936,-1288.5,-468.0,381.0,-83.257008,84.87833600000000,139.585296,-0.23013900000000000,0.6343,0.304009,0.672515,63587.095,63589.48
1742703768.801660,,0,Tag,4,5.901,3.675,3.633,6.198,,9.724929,-1.144868,0.101501,0.124094,-0.002742,0.114647,-1287.869312,-477.30832,359.722016,-1287.0,-460.5,384.0,-83.257272,84.87512800000000,139.58824000000000,-0.23014000000000000,0.6343,0.30400500000000000,0.6725170000000000,63607.095,63609.516
1742703768.821020,,0,Tag,4,5.873,3.673,3.581,6.121,,9.732597,-1.1486400000000000,0.090684,0.068039,-0.07053,0.04122,-1289.376,-483.43712,362.445152,-1288.5,-466.5,387.0,-83.25736000000000,84.877792,139.585824,-0.23014100000000000,0.634301,0.30400700000000000,0.672514,63627.095,63629.479
1742703768.841450,,0,Tag,4,5.94,3.649,3.576,6.207,,9.686128,-1.146145,0.09727900000000000,-0.002352,-0.019656,0.11347300000000000,-1290.872576,-480.372704,361.07808,-1290.0,-463.5,385.5,-83.256832,84.879088,139.585856,-0.230145,0.634297,0.304017,0.672512,63647.095,63649.477
1742703768.861890,,0,Tag,4,5.885,3.635,3.581,6.151,,9.682098,-1.15004,0.096424,0.039693,-0.003303,0.142479,-1286.3683840000000,-484.800576,359.38816000000000,-1285.5,-468.0,384.0,-83.256832,84.888328,139.576144,-0.23013900000000000,0.634304,0.304018,0.672507,63667.095,63669.514
1742703768.881360,,0,Tag,4,5.966,3.694,3.637,6.216,,9.724236,-1.1505920000000000,0.10267500000000000,0.01526,-0.002043,0.114259,-1286.36544,-478.739264,358.15977600000000,-1285.5,-462.0,382.5,-83.257272,84.879376,139.58552,-0.230147,0.6342980000000000,0.304015,0.672511,63687.095,63689.48
1742703768.901810,,0,Tag,4,5.913,3.67,3.64,6.209,,9.720649,-1.150415,0.107432,-0.001996,-0.0687,0.005804,-1283.372672,-480.372704,361.09648,-1282.5,-463.5,385.5,-83.256576,84.88152,139.583392,-0.230143,0.6342980000000000,0.304019,0.672511,63707.095,63709.482
1742703768.922390,,0,Tag,4,5.923,3.673,3.635,6.166,,9.701107,-1.14489,0.10316,-0.016480000000000000,-0.044383,0.112409,-1287.853952,-483.032064,353.45827200000000,-1287.0,-466.5,378.0,-83.25654400000000,84.883456,139.579984,-0.23013300000000000,0.634303,0.304012,0.6725130000000000,63727.095,63729.514
1742703768.940720,,0,Tag,4,5.916,3.659,3.598,6.166,,9.682521,-1.1457250000000000,0.108031,0.032934,0.033296,0.11577,-1290.8572160000000,-486.09651200000000,354.81433600000000,-1290.0,-469.5,379.5,-83.257008,84.88407200000000,139.580272,-0.23014100000000000,0.6343020000000000,0.304015,0.6725100000000000,63747.095,63749.478
1742703768.961150,,0,Tag,4,5.899,3.659,3.586,6.225,,9.713480000000000,-1.1467480000000000,0.10961300000000000,0.06765400000000000,-0.004449,0.16719500000000000,-1293.879936,-480.50771200000000,364.067616,-1293.0,-463.5,388.5,-83.257536,84.876312,139.587584,-0.230144,0.6343,0.30400700000000000,0.672514,63767.095,63769.482
1742703768.981580,,0,Tag,4,5.932,3.691,3.616,6.198,,9.724029,-1.154626,0.098025,-0.01624,0.026521,0.11530500000000000,-1292.375552,-486.43404800000000,362.302784,-1291.5,-469.5,387.0,-83.25709600000000,84.865648,139.59830400000000,-0.230145,0.634292,0.304006,0.672522,63787.095,63789.515
1742703769.002030,,0,Tag,4,5.964,3.705,3.637,6.164,,9.705130000000000,-1.137521,0.100759,0.137837,-0.09146400000000000,0.111076,-1295.361152,-483.16707200000000,356.436768,-1294.5,-466.5,381.0,-83.25709600000000,84.86745600000000,139.597808,-0.230152,0.634289,0.304014,0.672518,63807.095,63809.479
1742703769.021490,,0,Tag,4,5.88,3.673,3.663,6.162,,9.689715,-1.150881,0.098703,-0.0022920000000000000,-0.0019300000000000000,0.11419700000000000,-1287.8501120000000,-484.463008,351.89232,-1287.0,-468.0,376.5,-83.257328,84.877056,139.589008,-0.230155,0.634294,0.30402,0.6725100000000000,63827.095,63829.478
1742703769.041950,,0,Tag,4,5.956,3.68,3.609,6.239,,9.703053000000000,-1.153561,0.102556,0.096248,0.068342,0.11744300000000000,-1292.361216,-483.16707200000000,356.444128,-1291.5,-466.5,381.0,-83.25628000000000,84.877056,139.58884800000000,-0.230148,0.6342910000000000,0.304025,0.6725130000000000,63847.095,63849.514
1742703769.062530,,0,Tag,4,5.875,3.659,3.621,6.205,,9.727746,-1.142992,0.112027,-0.002711,-0.074213,0.14646600000000000,-1287.8432,-479.832608,349.097984,-1287.0,-463.5,373.5,-83.25654400000000,84.87533600000000,139.59096,-0.230153,0.63429,0.304025,0.6725130000000000,63867.095,63869.481
1742703769.080860,,0,Tag,4,5.968,3.651,3.59,6.198,,9.730145,-1.1443270000000000,0.10850300000000000,-0.055194,-0.07249700000000000,0.11111300000000000,-1292.35392,-483.032064,353.44726400000000,-1291.5,-466.5,378.0,-83.25716,84.879688,139.585712,-0.230149,0.634297,0.304018,0.6725100000000000,63887.095,63889.478
1742703769.101310,,0,Tag,4,5.923,3.687,3.633,6.13,,9.688711,-1.142062,0.10291400000000000,0.025242,-0.103031,0.15244,-1286.3608320000000,-487.66243200000000,356.256256,-1285.5,-471.0,381.0,-83.25692,84.87421600000000,139.59158400000000,-0.230152,0.634292,0.30402,0.6725130000000000,63907.095,63909.514
1742703769.121730,,0,Tag,4,5.94,3.712,3.621,6.225,,9.693324000000000,-1.155859,0.09413100000000000,0.032932000000000000,-0.07030400000000000,0.041095,-1287.85792,-480.10265600000000,355.091712,-1287.0,-463.5,379.5,-83.25724,84.883392,139.58248,-0.230151,0.6342980000000000,0.30402200000000000,0.672507,63927.095,63929.481
1742703769.142180,,0,Tag,4,5.918,3.687,3.621,6.193,,9.723978000000000,-1.14944,0.107431,-0.044662,-0.072564,0.11115,-1281.8722560000000,-484.868064,360.8976,-1281.0,-468.0,385.5,-83.256952,84.885736,139.579184,-0.230143,0.634301,0.304019,0.672508,63947.095,63949.516
1742703769.161560,,0,Tag,4,5.892,3.682,3.588,6.22,,9.732558,-1.144952,0.09870700000000000,0.040002000000000000,-0.014728,0.071569,-1286.3471360000000,-478.401664,350.667648,-1285.5,-462.0,375.0,-83.257448,84.89622400000000,139.568048,-0.23013900000000000,0.634311,0.304016,0.672501,63967.095,63969.512
1742703769.181980,,0,Tag,4,5.956,3.637,3.572,6.162,,9.684934,-1.1472530000000000,0.099711,-0.072388,0.033973000000000000,0.115395,-1284.8651520000000,-481.73616,358.02844800000000,-1284.0,-465.0,382.5,-83.256136,84.895304,139.569152,-0.23013300000000000,0.6343060000000000,0.30402400000000000,0.672504,63987.095,63989.477
1742703769.201360,,0,Tag,4,5.937,3.63,3.623,6.227,,9.673479,-1.144046,0.102822,0.039789,0.025057,0.143638,-1284.87616,-483.43712,362.456192,-1284.0,-466.5,387.0,-83.256312,84.88917600000000,139.575008,-0.23013400000000000,0.634304,0.304019,0.672509,64007.095,64009.516
1742703769.221870,,0,Tag,4,5.916,3.691,3.666,6.205,,9.72683,-1.144822,0.10248100000000000,-0.100714,-0.01603,0.127334,-1286.36544,-478.739264,358.15977600000000,-1285.5,-462.0,382.5,-83.25692,84.889288,139.57411200000000,-0.23013300000000000,0.634308,0.304012,0.672509,64027.095,64029.517
1742703769.241260,,0,Tag,4,5.916,3.689,3.583,6.135,,9.736092,-1.139695,0.103587,0.06795,-0.07121900000000000,0.058802,-1287.861504,-481.66864,356.522656,-1287.0,-465.0,381.0,-83.2564,84.890104,139.573728,-0.230132,0.634305,0.304017,0.672508,64047.095,64049.479
1742703769.261730,,0,Tag,4,5.844,3.724,3.579,6.18,,9.695424,-1.1507510000000000,0.10140200000000000,-0.058250000000000000,8.4E-05,0.071798,-1289.368704,-481.80368,359.51584000000000,-1288.5,-465.0,384.0,-83.25596,84.89208000000000,139.571856,-0.23013,0.634305,0.304021,0.672508,64067.095,64069.512
1742703769.282180,,0,Tag,4,5.94,3.712,3.612,6.2,,9.690619,-1.1457010000000000,0.10787900000000000,0.026056,0.055164,0.102548,-1287.876608,-478.94176,362.65136,-1287.0,-462.0,387.0,-83.255264,84.88961600000000,139.573024,-0.230119,0.634305,0.304016,0.672514,64087.095,64089.515
1742703769.301650,,0,Tag,4,5.964,3.661,3.621,6.175,,9.709973,-1.154396,0.099062,-0.002323,-0.036693000000000000,0.095166,-1293.872128,-484.868064,360.868224,-1293.0,-468.0,385.5,-83.255584,84.887832,139.575856,-0.230128,0.6343020000000000,0.30402,0.672512,64107.095,64109.481
1742703769.321020,,0,Tag,4,5.983,3.647,3.616,6.135,,9.742981,-1.139684,0.10918600000000000,-0.00215,-0.0008270000000000000,0.086064,-1280.356992,-489.093376,354.705024,-1279.5,-472.5,379.5,-83.256512,84.883568,139.579616,-0.230131,0.634303,0.304011,0.672514,64127.095,64129.515
1742703769.341440,,0,Tag,4,5.954,3.691,3.614,6.184,,9.694459,-1.1460710000000000,0.098329,0.054237,0.041905,0.073936,-1290.8538880000000,-483.032064,353.45091200000000,-1290.0,-466.5,378.0,-83.255848,84.882936,139.58072000000000,-0.230131,0.6343,0.304017,0.672515,64147.095,64149.517
1742703769.361870,,0,Tag,4,6.015,3.677,3.612,6.139,,9.686074,-1.1454690000000000,0.114064,0.067802,-0.037834,0.11299900000000000,-1284.8651520000000,-481.73616,358.02844800000000,-1284.0,-465.0,382.5,-83.255416,84.883744,139.580576,-0.230132,0.634297,0.304023,0.672514,64167.095,64169.478
1742703769.381330,,0,Tag,4,5.932,3.694,3.548,6.214,,9.714437,-1.147483,0.10917200000000000,-0.016407000000000000,-0.002391,0.128213,-1290.854144,-480.035168,353.58595200000000,-1290.0,-463.5,378.0,-83.25596,84.88152,139.583936,-0.23014200000000000,0.634294,0.30402600000000000,0.672512,64187.095,64189.514
1742703769.401790,,0,Tag,4,5.954,3.626,3.623,6.243,,9.736358,-1.1520760000000000,0.11247300000000000,0.01151,-0.07292500000000000,0.11135000000000000,-1289.346816,-479.900128,350.592768,-1288.5,-463.5,375.0,-83.25628000000000,84.88552,139.57939200000000,-0.23014000000000000,0.634299,0.30402200000000000,0.672509,64207.095,64209.515
1742703769.422230,,0,Tag,4,5.949,3.687,3.612,6.144,,9.709963,-1.154252,0.102659,-0.037400000000000000,-0.001704,0.11407200000000000,-1289.3500160000000,-484.463008,351.88864,-1288.5,-468.0,376.5,-83.256192,84.88765600000000,139.57728,-0.23013900000000000,0.6343,0.30402400000000000,0.672508,64227.095,64229.482
1742703769.441600,,0,Tag,4,5.952,3.694,3.659,6.234,,9.691634000000000,-1.154684,0.099591,0.096269,-0.028167000000000000,0.043057,-1286.3504640000000,-481.46611200000000,352.031008,-1285.5,-465.0,376.5,-83.25546400000000,84.89468,139.57134400000000,-0.23013900000000000,0.6343,0.304036,0.672503,64247.095,64249.515
1742703769.462090,,0,Tag,4,5.995,3.71,3.619,6.189,,9.714468,-1.14879,0.100577,-0.072436,-0.000927,0.09988,-1284.858368,-475.607328,355.301568,-1284.0,-459.0,379.5,-83.25468,84.891184,139.57384,-0.230129,0.634297,0.304033,0.6725100000000000,64267.095,64269.514
1742703769.481490,,0,Tag,4,5.94,3.691,3.6,6.175,,9.738437,-1.1381,0.113158,0.050307,-0.071795,0.076322,-1295.346176,-485.89395200000000,350.30803200000000,-1294.5,-469.5,375.0,-83.254944,84.89090400000000,139.575264,-0.23013800000000000,0.6342950000000000,0.304038,0.672507,64287.095,64289.478
1742703769.501940,,0,Tag,4,5.99,3.696,3.6,6.182,,9.706833,-1.148629,0.105289,-0.002007,0.000274,0.057932,-1283.368448,-484.800576,359.395488,-1282.5,-468.0,384.0,-83.2548,84.89120800000000,139.575552,-0.23014000000000000,0.634293,0.304042,0.6725060000000000,64307.095,64309.515
1742703769.521330,,0,Tag,4,5.954,3.623,3.619,6.202,,9.686093,-1.1434550000000000,0.10438,-0.107794,-0.002631,0.14898700000000000,-1289.361792,-477.17328,356.721504,-1288.5,-460.5,381.0,-83.253728,84.886432,139.57928000000000,-0.23013,0.63429,0.304041,0.672514,64327.095,64329.481
1742703769.541780,,0,Tag,4,5.983,3.63,3.588,6.236,,9.701585,-1.144687,0.102197,0.137928,-0.038974,0.130831,-1286.3577600000000,-481.60112,355.027872,-1285.5,-465.0,379.5,-83.2548,84.888864,139.57662400000000,-0.23013400000000000,0.6342950000000000,0.30403400000000000,0.6725100000000000,64347.095,64349.48
1742703769.561170,,0,Tag,4,5.976,3.691,3.595,6.207,,9.737292,-1.143664,0.10639500000000000,0.025937000000000000,0.040431000000000000,0.116034,-1292.357632,-481.60112,355.01318400000000,-1291.5,-465.0,379.5,-83.255264,84.884472,139.580752,-0.23013600000000000,0.634294,0.304029,0.672512,64367.095,64369.517
1742703769.581670,,0,Tag,4,5.954,3.675,3.626,6.207,,9.711130000000000,-1.1482950000000000,0.101241,0.10279000000000000,-0.073512,0.111675,-1289.37152,-489.36342400000000,360.676736,-1288.5,-472.5,385.5,-83.255304,84.882168,139.583728,-0.23014100000000000,0.6342910000000000,0.30403200000000000,0.672512,64387.095,64389.479
1742703769.602160,,0,Tag,4,5.923,3.703,3.598,6.13,,9.67783,-1.153475,0.095069,0.103267,-0.035303,0.042793,-1287.8689280000000,-480.305216,359.58700800000000,-1287.0,-463.5,384.0,-83.255,84.885504,139.58072000000000,-0.23014000000000000,0.634292,0.304036,0.6725100000000000,64407.095,64409.479
1742703769.621630,,0,Tag,4,5.94,3.68,3.64,6.22,,9.707800000000000,-1.150622,0.10345600000000000,0.054021,-0.042629,0.056394,-1295.357568,-483.099584,354.938336,-1294.5,-466.5,379.5,-83.254592,84.88473600000000,139.58152000000000,-0.23013800000000000,0.63429,0.304038,0.672512,64427.095,64429.515
1742703769.642090,,0,Tag,4,5.937,3.642,3.609,6.148,,9.732535,-1.1489720000000000,0.112311,0.10327,0.068297,0.11746800000000000,-1292.364672,-484.733024,357.875072,-1291.5,-468.0,382.5,-83.25468,84.886264,139.581168,-0.230145,0.634288,0.304045,0.672508,64447.095,64449.479
1742703769.661540,,0,Tag,4,5.995,3.626,3.583,6.214,,9.719435000000000,-1.1410610000000000,0.10105400000000000,0.067951,-0.019419,0.09614000000000000,-1293.85728,-484.598016,354.87449600000000,-1293.0,-468.0,379.5,-83.255096,84.88384000000000,139.583504,-0.230148,0.634288,0.304041,0.672509,64467.095,64469.479
1742703769.680970,,0,Tag,4,5.978,3.689,3.593,6.252,,9.689701,-1.149776,0.10226200000000000,0.012036,0.000184,0.057982,-1284.872064,-486.36656,360.822752,-1284.0,-469.5,385.5,-83.25436000000000,84.884208,139.584224,-0.23015,0.6342830000000000,0.304052,0.672508,64487.095,64489.514
1742703769.701430,,0,Tag,3,5.98,3.651,6.236,,,9.692071,-1.1426160000000000,0.094807,0.050396000000000000,-0.071106,0.05874,-1292.3502080000000,-482.96457600000000,351.948832,-1291.5,-466.5,376.5,-83.25384800000000,84.878552,139.588704,-0.23014200000000000,0.634281,0.304046,0.672515,64507.095,64509.482
1742703769.721880,,0,Tag,4,5.961,3.689,3.598,6.205,,9.714687,-1.1480870000000000,0.10607600000000000,-0.002054,0.017173,0.07975500000000000,-1290.864128,-489.228384,357.67619200000000,-1290.0,-472.5,382.5,-83.25375200000000,84.89073600000000,139.57504,-0.230129,0.634292,0.304042,0.672511,64527.095,64529.479
1742703769.742340,,0,Tag,4,5.983,3.644,3.605,6.18,,9.719267,-1.1546460000000000,0.09797400000000000,0.025842,0.053510000000000000,0.14474600000000000,-1286.353664,-486.02899200000000,353.32694400000000,-1285.5,-469.5,378.0,-83.253608,84.879584,139.586288,-0.230132,0.634284,0.30404,0.672518,64547.095,64549.517
1742703769.761720,,0,Tag,4,5.995,3.703,3.6,6.142,,9.705177000000000,-1.1449130000000000,0.096241,-0.0015150000000000000,0.12490900000000000,0.048934,-1287.846656,-482.897024,350.46144,-1287.0,-466.5,375.0,-83.252856,84.874848,139.59208000000000,-0.23013600000000000,0.634276,0.304048,0.6725210000000000,64567.095,64569.478
1742703769.781120,,0,Tag,4,5.99,3.661,3.635,6.211,,9.699233,-1.153,0.104894,-0.12525800000000000,0.04997,0.168679,-1287.85728,-486.09651200000000,354.821664,-1287.0,-469.5,379.5,-83.252912,84.86528,139.601264,-0.23013700000000000,0.6342710000000000,0.304042,0.672528,64587.095,64589.482
1742703769.801570,,0,Tag,4,5.964,3.689,3.581,6.18,,9.718286000000000,-1.146126,0.09475200000000000,-0.100379,0.041795,0.101518,-1284.876288,-480.440224,362.591232,-1284.0,-463.5,387.0,-83.252472,84.856032,139.609008,-0.230129,0.6342680000000000,0.304033,0.672538,64607.095,64609.514
1742703769.821030,,0,Tag,4,5.959,3.68,3.59,6.144,,9.723049,-1.150646,0.101463,-0.142366,0.001728,0.043366000000000000,-1280.3650560000000,-483.234624,357.97193600000000,-1279.5,-466.5,382.5,-83.25151200000000,84.85456000000000,139.607488,-0.23010600000000000,0.634272,0.30402200000000000,0.672547,64627.095,64629.478
1742703769.841490,,0,Tag,4,5.94,3.689,3.616,6.207,,9.695614000000000,-1.144471,0.108127,-0.07292700000000000,-0.073762,0.14621600000000000,-1287.880448,-476.012384,364.28486400000000,-1287.0,-459.0,388.5,-83.251896,84.85884,139.601248,-0.230096,0.634281,0.30401,0.672547,64647.095,64649.479
1742703769.862010,,0,Tag,4,5.949,3.626,3.609,6.214,,9.706818,-1.145711,0.106137,-0.058179000000000000,0.0006350000000000000,0.057732,-1283.372416,-483.36963200000000,360.96147200000000,-1282.5,-466.5,385.5,-83.251424,84.871696,139.58699200000000,-0.23008000000000000,0.6342910000000000,0.304009,0.672543,64667.095,64669.514
1742703769.882470,,0,Tag,4,5.94,3.68,3.609,6.187,,9.717113,-1.155422,0.102783,-0.072659,-0.071695,0.093468,-1286.376704,-477.44332800000000,362.72256,-1285.5,-460.5,387.0,-83.251072,84.87457600000000,139.583616,-0.230075,0.634294,0.304009,0.672543,64687.095,64689.479
1742703769.900870,,0,Tag,4,5.99,3.659,3.586,6.18,,9.708704,-1.142064,0.10697800000000000,-0.03716,0.069199,0.11696800000000000,-1289.368704,-481.80368,359.51584000000000,-1288.5,-465.0,384.0,-83.250256,84.86892,139.585936,-0.23005200000000000,0.634296,0.303993,0.672555,64707.095,64709.481
1742703769.921350,,0,Tag,4,5.918,3.687,3.619,6.243,,9.693509000000000,-1.1461140000000000,0.09736,-0.12868,-0.0011180000000000000,0.113747,-1289.357696,-481.60112,355.020544,-1288.5,-465.0,379.5,-83.25068,84.86592,139.587952,-0.23005000000000000,0.6342980000000000,0.303985,0.672558,64727.095,64729.513
1742703769.941860,,0,Tag,4,5.954,3.698,3.59,6.193,,9.697997000000000,-1.146764,0.11064400000000000,0.102672,-0.005364,0.18490300000000000,-1295.361152,-483.16707200000000,356.436768,-1294.5,-466.5,381.0,-83.251072,84.87284800000000,139.58080000000000,-0.230048,0.634304,0.303983,0.672553,64747.095,64749.477
1742703769.962330,,0,Tag,4,5.899,3.698,3.6,6.193,,9.724213000000000,-1.146896,0.104934,0.050605,-0.034964000000000000,0.042605,-1290.882816,-488.06752,365.23584,-1290.0,-471.0,390.0,-83.25111200000000,84.874944,139.57952,-0.23005300000000000,0.634304,0.303988,0.67255,64767.095,64769.48
1742703769.981840,,0,Tag,4,5.942,3.633,3.63,6.157,,9.723034,-1.1504430000000000,0.106499,0.026319,0.07099800000000000,0.060928000000000000,-1286.3681280000000,-487.79747200000000,359.25312000000000,-1285.5,-471.0,384.0,-83.24992,84.86372,139.59105600000000,-0.23005200000000000,0.634292,0.303993,0.6725600000000000,64787.095,64789.515
1742703770.001240,,0,Tag,4,5.887,3.642,3.623,6.166,,9.694458,-1.146061,0.09856900000000000,-0.002352,-0.019656,0.11347300000000000,-1286.368256,-486.29904,359.32064000000000,-1285.5,-469.5,384.0,-83.249752,84.860456,139.59390400000000,-0.23004900000000000,0.63429,0.30399,0.672563,64807.095,64809.483
1742703770.021680,,0,Tag,4,5.93,3.675,3.605,6.25,,9.703944,-1.144388,0.109417,-0.002352,-0.019656,0.11347300000000000,-1284.857728,-481.60112,355.031552,-1284.0,-465.0,379.5,-83.249512,84.86096000000000,139.59227200000000,-0.230041,0.634293,0.303985,0.672566,64827.095,64829.482
1742703770.042180,,0,Tag,4,5.916,3.684,3.574,6.144,,9.717294000000000,-1.1456280000000000,0.10721,0.068088,-0.014909000000000000,0.071669,-1289.36448,-486.23152,357.81488000000000,-1288.5,-469.5,382.5,-83.24959200000000,84.860632,139.591728,-0.230037,0.6342950000000000,0.30398,0.6725670000000000,64847.095,64849.514
1742703770.061640,,0,Tag,4,5.935,3.661,3.574,6.207,,9.700437000000000,-1.154291,0.102555,0.050279,-0.0029580000000000000,0.131967,-1286.346752,-481.39859200000000,350.532608,-1285.5,-465.0,375.0,-83.24866400000000,84.852272,139.59952000000000,-0.23003100000000000,0.634288,0.303979,0.672576,64867.095,64869.483
1742703770.082090,,0,Tag,4,5.956,3.708,3.623,6.218,,9.703999,-1.151877,0.102501,-0.055045,-0.054081,0.09425400000000000,-1293.886976,-483.63968,366.92944,-1293.0,-466.5,391.5,-83.248024,84.850672,139.601504,-0.23003000000000000,0.634284,0.303984,0.672578,64887.095,64889.482
1742703770.102540,,0,Tag,4,5.904,3.654,3.539,6.187,,9.707782,-1.146744,0.104266,-0.002247,-0.07063,0.055036000000000000,-1284.850048,-484.463008,351.89964800000000,-1284.0,-468.0,376.5,-83.248136,84.850504,139.60016,-0.23002200000000000,0.634289,0.303975,0.672581,64907.095,64909.513
1742703770.120970,,0,Tag,4,5.947,3.628,3.626,6.182,,9.701581,-1.141232,0.09846100000000000,-0.03746,-0.019431,0.11334800000000000,-1289.36448,-486.23152,357.81488000000000,-1288.5,-469.5,382.5,-83.246752,84.86014400000000,139.590352,-0.23001,0.6342910000000000,0.303985,0.6725790000000000,64927.095,64929.479
1742703770.141380,,0,Tag,4,5.93,3.644,3.59,6.227,,9.708734,-1.149465,0.108225,0.011893000000000000,-0.000918,0.086114,-1290.857984,-478.604224,355.15187200000000,-1290.0,-462.0,379.5,-83.247216,84.851568,139.598928,-0.230015,0.6342870000000000,0.303979,0.6725830000000000,64947.095,64949.514
1742703770.161800,,0,Tag,4,6.006,3.68,3.633,6.209,,9.711591,-1.144924,0.101356,-0.10042800000000000,-0.013825000000000000,0.071069,-1284.846848,-481.39859200000000,350.536256,-1284.0,-465.0,375.0,-83.247736,84.853664,139.595744,-0.230011,0.634293,0.303971,0.6725830000000000,64967.095,64969.514
1742703770.182220,,0,Tag,4,5.911,3.703,3.647,6.13,,9.717040000000000,-1.1397740000000000,0.103379,-0.002323,-0.036693000000000000,0.095166,-1284.871936,-487.864992,360.755264,-1284.0,-471.0,385.5,-83.24663200000000,84.860248,139.587856,-0.22999500000000000,0.634297,0.30397200000000000,0.672584,64987.095,64989.483
1742703770.201700,,0,Tag,4,6.004,3.696,3.583,6.193,,9.698280000000000,-1.1480140000000000,0.09748600000000000,-0.002771,-0.1023,0.13827400000000000,-1286.372736,-480.372704,361.08912,-1285.5,-463.5,385.5,-83.247416,84.858352,139.589312,-0.22999800000000000,0.634299,0.303965,0.672584,65007.095,65009.514
1742703770.221080,,0,Tag,4,5.93,3.637,3.607,6.214,,9.695417000000000,-1.146144,0.09642100000000000,0.124095,0.038697000000000000,0.144517,-1287.865472,-478.739264,358.156096,-1287.0,-462.0,382.5,-83.247736,84.859456,139.590032,-0.23001,0.634296,0.30397400000000000,0.6725790000000000,65027.095,65029.514
1742703770.241510,,0,Tag,4,5.976,3.67,3.581,6.164,,9.727775,-1.147888,0.109815,-0.019578000000000000,0.000249,0.061386000000000000,-1289.383808,-479.0768,365.644608,-1288.5,-462.0,390.0,-83.247736,84.84839200000000,139.601312,-0.230015,0.634288,0.303971,0.672585,65047.095,65049.482
1742703770.261940,,0,Tag,4,5.928,3.675,3.614,6.223,,9.713536,-1.152673,0.099755,-0.04459,-0.072013,0.09708400000000000,-1286.365568,-477.240768,358.22729600000000,-1285.5,-460.5,382.5,-83.248376,84.84588,139.603824,-0.230019,0.634289,0.303967,0.672585,65067.095,65069.514
1742703770.281420,,0,Tag,4,6.004,3.64,3.628,6.214,,9.700133,-1.14282,0.106912,0.05352,-0.046488000000000000,0.154857,-1284.87616,-481.93868800000000,362.52368000000000,-1284.0,-465.0,387.0,-83.247688,84.85404,139.595968,-0.230014,0.6342910000000000,0.303975,0.672581,65087.095,65089.515
1742703770.301870,,0,Tag,4,5.932,3.684,3.567,6.117,,9.701655000000000,-1.155776,0.09542100000000000,0.13813700000000000,-0.002833,0.114697,-1292.36096,-484.665536,356.376576,-1291.5,-468.0,381.0,-83.248024,84.854024,139.596544,-0.23002,0.6342910000000000,0.30397600000000000,0.6725790000000000,65107.095,65109.48
1742703770.322310,,0,Tag,4,5.944,3.691,3.6,6.22,,9.717307,-1.147625,0.105366,-0.043967,0.070898,0.07474400000000000,-1289.36448,-486.23152,357.81488000000000,-1288.5,-469.5,382.5,-83.24876000000000,84.85332,139.598512,-0.23003100000000000,0.634289,0.303979,0.6725750000000000,65127.095,65129.514
1742703770.341680,,0,Tag,4,5.897,3.647,3.614,6.169,,9.725887,-1.142216,0.095646,0.082061,0.025889,0.115655,-1284.8618240000000,-478.67171200000000,356.66502400000000,-1284.0,-462.0,381.0,-83.24866400000000,84.84001600000000,139.612944,-0.230042,0.634277,0.303981,0.672582,65147.095,65149.518000000000
1742703770.362140,,0,Tag,4,5.916,3.668,3.52,6.211,,9.700408,-1.145989,0.09983300000000000,0.032814000000000000,-0.002156,0.114322,-1289.364864,-483.234624,357.949888,-1288.5,-466.5,382.5,-83.24908000000000,84.85053600000000,139.60225600000000,-0.23004,0.634286,0.303982,0.672574,65167.095,65169.478
1742703770.381590,,0,Tag,4,5.923,3.647,3.616,6.227,,9.689676,-1.1431340000000000,0.10008400000000000,-0.00215,-0.0008270000000000000,0.086064,-1295.349504,-488.95836800000000,351.671424,-1294.5,-472.5,376.5,-83.24936800000000,84.851416,139.600944,-0.230039,0.634289,0.30397800000000000,0.672574,65187.095,65189.514
1742703770.402070,,0,Tag,4,5.947,3.64,3.588,6.232,,9.709705,-1.150614,0.103476,-0.0022460000000000000,-0.029189,0.084906,-1284.857728,-483.099584,354.964032,-1284.0,-466.5,379.5,-83.248984,84.85424000000000,139.597648,-0.230033,0.63429,0.303979,0.672574,65207.095,65209.517
1742703770.422640,,0,Tag,4,5.909,3.668,3.64,6.193,,9.725440000000000,-1.151884,0.100337,-0.019488,0.052739000000000000,0.08114100000000000,-1281.8496,-488.95836800000000,351.70448,-1281.0,-472.5,376.5,-83.24957600000000,84.851568,139.599568,-0.230032,0.634293,0.30397000000000000,0.672576,65227.095,65229.477
1742703770.440960,,0,Tag,3,5.93,3.642,6.137,,,9.701087,-1.1455420000000000,0.110871,-0.0025070000000000000,-0.003584,0.156395,-1286.33216,-481.128544,344.538848,-1285.5,-465.0,369.0,-83.249656,84.844984,139.606224,-0.230036,0.634288,0.30396800000000000,0.67258,65247.095,65249.518000000000
1742703770.461380,,0,Tag,4,5.909,3.668,3.621,6.178,,9.694467,-1.149795,0.101355,0.039907,-0.00165,0.10028,-1290.854016,-481.53363200000000,353.51843200000000,-1290.0,-465.0,378.0,-83.24959200000000,84.84284800000000,139.609376,-0.230042,0.634284,0.303973,0.6725790000000000,65267.095,65269.516
1742703770.481880,,0,Tag,4,5.966,3.689,3.59,6.171,,9.708738,-1.145905,0.10112200000000000,-0.0022920000000000000,-0.0019300000000000000,0.11419700000000000,-1289.357696,-481.60112,355.020544,-1288.5,-465.0,379.5,-83.24989600000000,84.840552,139.611344,-0.230042,0.634284,0.303969,0.672581,65287.095,65289.478
1742703770.502370,,0,Tag,4,5.897,3.656,3.595,6.214,,9.722093,-1.1487970000000000,0.0997,0.040026,-0.028358000000000000,0.056923000000000000,-1289.35808,-478.604224,355.155552,-1288.5,-462.0,379.5,-83.25044,84.84580800000000,139.606224,-0.230044,0.634289,0.303969,0.672576,65307.095,65309.516
1742703770.521830,,0,Tag,4,5.913,3.663,3.572,6.133,,9.698037,-1.151805,0.104834,0.13784,0.012136,0.185752,-1286.3616,-480.17017600000000,356.593824,-1285.5,-463.5,381.0,-83.24992,84.843328,139.610128,-0.23005100000000000,0.634282,0.303979,0.672576,65327.095,65329.479
1742703770.542290,,0,Tag,3,5.959,3.666,3.607,,,9.707520000000000,-1.142166,0.104567,-0.037401,-0.053505,0.076734,-1290.883328,-483.57216,365.4384,-1290.0,-466.5,390.0,-83.24959200000000,84.845888,139.608208,-0.23005200000000000,0.634281,0.303985,0.672574,65347.095,65349.479
1742703770.561830,,0,Tag,4,5.928,3.696,3.675,6.133,,9.724915,-1.145597,0.107293,0.12418800000000000,-0.057261,0.056065,-1287.8768640000000,-475.94489600000000,362.78640000000000,-1287.0,-459.0,387.0,-83.249512,84.83972,139.616336,-0.230065,0.634272,0.303994,0.672574,65367.095,65369.513
1742703770.581230,,0,Tag,4,5.954,3.68,3.656,6.162,,9.702761000000000,-1.138827,0.098381,-0.08973200000000000,0.070227,0.099198,-1289.369088,-477.30832,359.718368,-1288.5,-460.5,384.0,-83.249624,84.84304,139.61208,-0.23005900000000000,0.634277,0.303989,0.672573,65387.095,65389.479
1742703770.601690,,0,Tag,4,5.971,3.696,3.628,6.216,,9.698028000000000,-1.14715,0.10105200000000000,-0.0022920000000000000,-0.0019300000000000000,0.11419700000000000,-1286.368896,-480.305216,359.59065600000000,-1285.5,-463.5,384.0,-83.249544,84.8428,139.611744,-0.23005500000000000,0.634278,0.303987,0.6725750000000000,65407.095,65409.478
1742703770.622130,,0,Tag,3,5.906,3.6,6.25,,,9.727771000000000,-1.1455850000000000,0.10732400000000000,-0.002342,-0.057551,0.083747,-1296.88384,-479.0768,365.62620800000000,-1296.0,-462.0,390.0,-83.250328,84.84861600000000,139.60608,-0.23005800000000000,0.634284,0.303985,0.672569,65427.095,65429.515
1742703770.641600,,0,Tag,4,5.947,3.696,3.63,6.214,,9.726556,-1.137335,0.10339,-0.072507,0.050321,0.151284,-1290.876032,-483.43712,362.441504,-1290.0,-466.5,387.0,-83.250888,84.84231200000000,139.611776,-0.23006,0.6342830000000000,0.303977,0.672573,65447.095,65449.479
1742703770.662060,,0,Tag,4,5.98,3.67,3.576,6.248,,9.705170000000000,-1.148224,0.103574,-0.002412,-0.037383,0.11274900000000000,-1290.86976,-471.314528,359.98470400000000,-1290.0,-454.5,384.0,-83.250648,84.8408,139.61281600000000,-0.23005700000000000,0.634282,0.303975,0.6725750000000000,65467.095,65469.481
1742703770.681530,,0,Tag,4,6.002,3.67,3.562,6.187,,9.683054,-1.1528,0.099424,0.06784700000000000,-0.127254,0.038903,-1292.364672,-484.733024,357.875072,-1291.5,-468.0,382.5,-83.24942400000000,84.84660800000000,139.607696,-0.23005200000000000,0.63428,0.303987,0.672573,65487.095,65489.514
1742703770.702050,,0,Tag,3,3.682,3.619,6.223,,,9.725398,-1.145691,0.104901,0.032217000000000000,-0.075817,0.181756,-1287.865216,-480.237664,358.08860800000000,-1287.0,-463.5,382.5,-83.250072,84.855128,139.59952000000000,-0.23005500000000000,0.6342870000000000,0.303988,0.672565,65507.095,65509.479
1742703770.721510,,0,Tag,4,6.002,3.703,3.656,6.2,,9.74087,-1.146682,0.10871200000000000,0.032574,-0.073061,0.111425,-1289.349504,-488.95836800000000,351.686112,-1288.5,-472.5,376.5,-83.251232,84.857832,139.596,-0.23005500000000000,0.6342950000000000,0.303979,0.672562,65527.095,65529.478
1742703770.741960,,0,Tag,3,5.909,3.633,6.151,,,9.68779,-1.147903,0.10120800000000000,0.067922,-0.002381,0.114447,-1292.3429120000000,-482.82953600000000,348.95196800000000,-1291.5,-466.5,373.5,-83.25100000000000,84.86014400000000,139.593856,-0.23005400000000000,0.6342950000000000,0.303982,0.672561,65547.095,65549.514
1742703770.762420,,0,Tag,4,5.966,3.703,3.637,6.257,,9.680251,-1.1607620000000000,0.092975,-0.019606,0.069087,0.11703,-1281.8647040000000,-484.733024,357.90076800000000,-1281.0,-468.0,382.5,-83.251072,84.860592,139.594112,-0.23005900000000000,0.634294,0.303985,0.672559,65567.095,65569.48
1742703770.781840,,0,Tag,4,5.954,3.666,3.635,6.248,,9.731359,-1.151425,0.111192,0.0152,-0.019769,0.113535,-1283.3539840000000,-483.032064,353.469312,-1282.5,-466.5,378.0,-83.25128,84.853448,139.60115200000000,-0.230062,0.63429,0.303981,0.672563,65587.095,65589.479
1742703770.801240,,0,Tag,4,5.983,3.684,3.6,6.157,,9.740153,-1.141886,0.102515,0.040028,0.054522000000000000,0.11666400000000000,-1284.857472,-484.598016,354.896512,-1284.0,-468.0,379.5,-83.252184,84.848728,139.605888,-0.230069,0.63429,0.303975,0.6725640000000000,65607.095,65609.513
1742703770.821710,,0,Tag,3,5.923,3.708,6.18,,,9.692083,-1.15183,0.10477,0.050308,-0.019995,0.11366,-1287.86112,-484.665536,356.38764800000000,-1287.0,-468.0,381.0,-83.251048,84.850856,139.60432,-0.230065,0.634286,0.303985,0.672565,65627.095,65629.481
1742703770.842140,,0,Tag,3,3.703,3.6,6.205,,,9.678972,-1.1437740000000000,0.097109,0.13780800000000000,-0.074427,0.129383,-1284.872192,-484.868064,360.890272,-1284.0,-468.0,385.5,-83.251632,84.85852,139.59808000000000,-0.230074,0.634289,0.303992,0.672555,65647.095,65649.479
1742703770.862560,,0,Tag,0,,,,,,9.727763,-1.140939,0.10330200000000000,-0.030474000000000000,0.011328,0.142808,-1290.8684800000000,-483.30211200000000,359.44464,-1290.0,-466.5,384.0,-83.252096,84.8596,139.597408,-0.23007800000000000,0.63429,0.303992,0.672553,65667.095,65669.514
1742703770.880950,,0,Tag,3,5.923,3.703,3.6,,,9.734907,-1.1409,0.10362000000000000,0.015768,0.07092800000000000,0.06440700000000000,-1290.8724480000000,-481.8712,361.010592,-1290.0,-465.0,385.5,-83.25200800000000,84.855688,139.600496,-0.230074,0.63429,0.303987,0.672557,65687.095,65689.478
1742703770.901420,,0,Tag,4,5.93,3.703,3.67,6.205,,9.690905000000000,-1.153131,0.102405,-0.07215000000000000,0.001277,0.043616000000000000,-1289.3800960000000,-479.00928,364.146144,-1288.5,-462.0,388.5,-83.251136,84.849856,139.606304,-0.230071,0.6342830000000000,0.303989,0.672563,65707.095,65709.478
1742703770.921860,,0,Tag,4,5.949,3.71,3.644,6.205,,9.670651,-1.1471690000000000,0.097148,-0.04471,-0.086745,0.11057100000000000,-1290.8684800000000,-483.30211200000000,359.44464,-1290.0,-466.5,384.0,-83.25090400000000,84.85452,139.600272,-0.23006,0.634289,0.303984,0.672563,65727.095,65729.514
1742703770.941230,,0,Tag,0,,,,,,9.715887,-1.1493310000000000,0.104936,0.049951000000000000,-0.022751,0.183991,-1286.3681280000000,-487.79747200000000,359.25312000000000,-1285.5,-471.0,384.0,-83.25128,84.851672,139.60278400000000,-0.230061,0.634289,0.30398,0.672565,65747.095,65749.478
1742703770.961660,,0,Tag,4,5.949,3.71,3.644,6.205,,9.733747,-1.15036,0.10757500000000000,0.033293000000000000,0.087853,0.08277700000000000,-1287.8792960000000,-488.0,363.744736,-1287.0,-471.0,388.5,-83.251544,84.85739200000000,139.598368,-0.230069,0.63429,0.303987,0.672558,65767.095,65769.482
1742703770.982190,,0,Tag,4,5.949,3.705,3.59,6.205,,9.695435,-1.15271,0.100518,-0.086814,-0.058664000000000000,0.125646,-1289.3573120000000,-484.598016,354.88550400000000,-1288.5,-468.0,379.5,-83.25151200000000,84.84539200000000,139.61136,-0.23007800000000000,0.63428,0.303989,0.6725640000000000,65787.095,65789.517
1742703771.001590,,0,Tag,3,5.949,3.684,6.155,,,9.681292,-1.136179,0.106448,-0.037072,0.018088,0.062048,-1283.3652480000000,-480.237664,358.09961600000000,-1282.5,-463.5,382.5,-83.25227200000000,84.840592,139.616032,-0.23008300000000000,0.6342790000000000,0.303983,0.672565,65807.095,65809.48300000000
1742703771.020990,,0,Tag,4,5.932,3.654,3.59,6.214,,9.72302,-1.148005,0.10736500000000000,-0.107376,0.06965100000000000,0.11671800000000000,-1286.3650560000000,-481.73616,358.02473600000000,-1285.5,-465.0,382.5,-83.252792,84.839728,139.617424,-0.23009,0.6342790000000000,0.303983,0.672563,65827.095,65829.478
1742703771.041530,,0,Tag,3,5.909,3.68,6.18,,,9.727753,-1.139902,0.105184,-0.0021250000000000000,0.026982,0.10128900000000000,-1284.868608,-483.30211200000000,359.45932800000000,-1284.0,-466.5,384.0,-83.253376,84.83648,139.62086400000000,-0.230095,0.634278,0.303979,0.6725640000000000,65847.095,65849.515
1742703771.061940,,0,Tag,4,5.894,3.654,3.687,6.207,,9.692061000000000,-1.1458790000000000,0.103339,0.050667,0.034561,0.080667,-1281.8689280000000,-480.305216,359.601696,-1281.0,-463.5,384.0,-83.253496,84.833632,139.62481600000000,-0.230103,0.634274,0.303984,0.672563,65867.095,65869.479
1742703771.081360,,0,Tag,4,5.961,3.684,3.633,6.241,,9.687327,-1.148539,0.097385,0.049831,-0.058204,0.18254300000000000,-1292.354176,-480.035168,353.582272,-1291.5,-463.5,378.0,-83.25268,84.83532,139.62379200000000,-0.230102,0.6342710000000000,0.303993,0.672563,65887.095,65889.481
1742703771.101810,,0,Tag,4,5.94,3.717,3.637,6.25,,9.726814,-1.144629,0.107277,-0.002317,-0.029741,0.09897200000000000,-1289.350272,-482.96457600000000,351.95616,-1288.5,-466.5,376.5,-83.25282400000000,84.83086400000000,139.628704,-0.23010700000000000,0.634267,0.303993,0.6725640000000000,65907.095,65909.513
1742703771.122250,,0,Tag,4,5.954,3.708,3.53,6.209,,9.720639,-1.145759,0.10365000000000000,-0.002264,-0.070768,0.058552,-1289.361408,-480.17017600000000,356.586496,-1288.5,-463.5,381.0,-83.252968,84.83162400000000,139.628416,-0.23011000000000000,0.634267,0.30399500000000000,0.672562,65927.095,65929.477
1742703771.142650,,0,Tag,3,5.94,3.694,6.198,,,9.693252,-1.142466,0.09841700000000000,-0.002203,-0.001241,0.09661400000000000,-1284.8587520000000,-472.61040000000000,355.436608,-1284.0,-456.0,379.5,-83.25227200000000,84.824016,139.63601600000000,-0.23010900000000000,0.6342600000000000,0.303996,0.672569,65947.095,65949.481
1742703771.160970,,0,Tag,4,5.923,3.705,3.53,6.234,,9.704923000000000,-1.1467560000000000,0.104235,0.053184000000000000,-0.145755,0.150803,-1287.85472,-475.53984000000000,353.79584,-1287.0,-459.0,378.0,-83.25177600000000,84.83268800000000,139.627872,-0.23010600000000000,0.634262,0.304004,0.6725640000000000,65967.095,65969.513
1742703771.181410,,0,Tag,4,5.932,3.691,3.616,6.202,,9.727803,-1.149378,0.102668,-0.072508,-0.0014790000000000000,0.11394700000000000,-1283.357696,-483.099584,354.967712,-1282.5,-466.5,379.5,-83.251632,84.84015200000000,139.62128000000000,-0.23010800000000000,0.6342640000000000,0.304013,0.672557,65987.095,65989.478
1742703771.201900,,0,Tag,3,5.916,3.64,6.209,,,9.717332000000000,-1.149738,0.100645,0.053974000000000000,-0.015369000000000000,0.085685,-1281.876352,-480.440224,362.598528,-1281.0,-463.5,387.0,-83.25151200000000,84.84972000000000,139.610928,-0.2301,0.634272,0.304012,0.672553,66007.095,66009.513
1742703771.221290,,0,Tag,4,5.942,3.691,3.609,6.227,,9.677313,-1.148868,0.10209,0.011821,-0.001469,0.10018000000000000,-1284.8608,-487.66243200000000,356.259936,-1284.0,-471.0,381.0,-83.25096000000000,84.85226400000000,139.60968,-0.230103,0.634269,0.304023,0.67255,66027.095,66029.517
1742703771.241710,,0,Tag,4,5.901,3.67,3.656,6.277,,9.699210000000000,-1.1493040000000000,0.107152,-0.002561,-0.003997,0.16694500000000000,-1289.358592,-472.61040000000000,355.4256,-1288.5,-456.0,379.5,-83.251336,84.848072,139.613808,-0.23010700000000000,0.634267,0.304019,0.6725520000000000,66047.095,66049.482
1742703771.262130,,0,Tag,4,5.925,3.696,3.684,6.178,,9.7392,-1.148224,0.112356,0.12419,0.025618,0.11580500000000000,-1289.36896,-478.80675200000000,359.650848,-1288.5,-462.0,384.0,-83.251544,84.838848,139.622768,-0.23010900000000000,0.634263,0.304014,0.672558,66067.095,66069.517
1742703771.282660,,0,Tag,4,5.932,3.668,3.675,6.207,,9.729694,-1.1476120000000000,0.104542,-0.142533,-0.027184,0.056273,-1287.872512,-481.8712,361.017952,-1287.0,-465.0,385.5,-83.25177600000000,84.839232,139.62104,-0.230103,0.634267,0.30400500000000000,0.6725600000000000,66087.095,66089.517
1742703771.301030,,0,Tag,3,5.928,3.673,6.257,,,9.694441,-1.1469720000000000,0.105809,-0.09051,-0.056612000000000000,0.16446,-1290.86784,-489.295936,359.17459200000000,-1290.0,-472.5,384.0,-83.25156800000000,84.84503200000000,139.613584,-0.23009,0.6342750000000000,0.30399900000000000,0.6725600000000000,66107.095,66109.481
1742703771.321560,,0,Tag,4,5.899,3.673,3.675,6.209,,9.678226,-1.1438330000000000,0.10767,-0.030379,-0.0017500000000000000,0.11409700000000000,-1284.854272,-480.035168,353.60064,-1284.0,-463.5,378.0,-83.251832,84.839176,139.617808,-0.23008400000000000,0.634276,0.303987,0.672566,66127.095,66129.513
1742703771.342010,,0,Tag,3,5.913,3.644,6.2,,,9.729729000000000,-1.155292,0.104839,0.011990000000000000,0.068884,0.117143,-1292.375552,-487.93248,362.235296,-1291.5,-471.0,387.0,-83.252392,84.824552,139.631744,-0.230088,0.63427,0.303975,0.672576,66147.095,66149.512
1742703771.361470,,0,Tag,3,5.921,3.635,6.202,,,9.737315000000000,-1.142379,0.096499,0.032457,-0.004912,0.18465300000000000,-1280.35456,-478.536704,353.679168,-1279.5,-462.0,378.0,-83.25332,84.81992800000000,139.63784000000000,-0.230103,0.634266,0.303977,0.672574,66167.095,66169.479
1742703771.381920,,0,Tag,4,5.952,3.673,3.598,6.245,,9.686837000000000,-1.147907,0.101198,-0.002221,-0.001379,0.10013,-1284.86144,-481.66864,356.52998400000000,-1284.0,-465.0,381.0,-83.25314400000000,84.819504,139.639104,-0.23010700000000000,0.634263,0.303982,0.672573,66187.095,66189.518
1742703771.402390,,0,Tag,4,5.899,3.673,3.666,6.187,,9.681144,-1.153652,0.10231700000000000,-0.002127,-0.055897000000000000,0.041549000000000000,-1284.86528,-480.237664,358.095936,-1284.0,-463.5,382.5,-83.25224,84.81979200000000,139.638544,-0.2301,0.634261,0.303985,0.6725750000000000,66207.095,66209.513
1742703771.421810,,0,Tag,3,5.925,3.684,6.2,,,9.714686,-1.14468,0.101141,-0.072088,0.12260400000000000,0.119015,-1278.857728,-483.099584,354.97872,-1278.0,-466.5,379.5,-83.25256,84.815912,139.64208,-0.230101,0.634261,0.30398,0.672578,66227.095,66229.478
1742703771.441210,,0,Tag,3,5.911,3.673,3.666,,,9.723971000000000,-1.146638,0.105402,-0.016528000000000000,-0.058564,0.11183,-1286.3696640000000,-474.31139200000000,359.860704,-1285.5,-457.5,384.0,-83.25256,84.809,139.648176,-0.230099,0.634259,0.30397400000000000,0.672584,66247.095,66249.517
1742703771.461650,,0,Tag,4,5.937,3.694,3.654,6.2,,9.717335,-1.147973,0.096734,0.025553,-0.073016,0.1114,-1278.876288,-481.93868800000000,362.53840000000000,-1278.0,-465.0,387.0,-83.252712,84.80748,139.648224,-0.230092,0.634262,0.303964,0.6725870000000000,66267.095,66269.513
1742703771.482080,,0,Tag,4,5.94,3.666,3.626,6.191,,9.694461,-1.142703,0.09243500000000000,0.015230000000000000,-0.036806,0.095228,-1286.35456,-477.038272,353.73200000000000,-1285.5,-460.5,378.0,-83.25227200000000,84.814864,139.640752,-0.23008600000000000,0.634266,0.30396800000000000,0.672584,66287.095,66289.478
1742703771.502570,,0,Tag,4,5.875,3.68,3.656,6.252,,9.700161,-1.143167,0.09828000000000000,0.081629,-0.101739,0.110442,-1283.35424,-480.035168,353.60432,-1282.5,-463.5,378.0,-83.252648,84.81749600000000,139.63936000000000,-0.230095,0.634265,0.30397400000000000,0.6725790000000000,66307.095,66309.515
1742703771.520930,,0,Tag,4,5.93,3.727,3.562,6.216,,9.705171,-1.145969,0.099885,0.015082,-0.003421,0.149425,-1284.864128,-490.72688,357.62336,-1284.0,-474.0,382.5,-83.253256,84.82516,139.63264000000000,-0.230101,0.63427,0.303979,0.67257,66327.095,66329.478
1742703771.541360,,0,Tag,3,5.904,3.565,6.184,,,9.700369,-1.142099,0.106887,0.032842000000000000,-0.070993,0.058677,-1287.853952,-483.032064,353.45827200000000,-1287.0,-466.5,378.0,-83.25380800000000,84.828696,139.628624,-0.2301,0.6342750000000000,0.30397400000000000,0.6725680000000000,66347.095,66349.481
1742703771.561790,,0,Tag,4,5.904,3.727,3.59,6.187,,9.701166000000000,-1.156526,0.100728,-0.0022920000000000000,-0.0019300000000000000,0.11419700000000000,-1284.864768,-484.733024,357.89340800000000,-1284.0,-468.0,382.5,-83.253232,84.827224,139.63016,-0.230098,0.634272,0.303977,0.67257,66367.095,66369.515
1742703771.582270,,0,Tag,4,5.904,3.67,3.656,6.173,,9.712338000000000,-1.150787,0.098949,0.10303,-0.002607,0.114572,-1287.8686720000000,-483.30211200000000,359.452,-1287.0,-466.5,384.0,-83.253176,84.819848,139.638848,-0.23010800000000000,0.634263,0.303982,0.672572,66387.095,66389.478
1742703771.601680,,0,Tag,4,5.947,3.668,3.6,6.22,,9.712322,-1.1494420000000000,0.10249900000000000,0.015171000000000000,-0.002732,0.131842,-1286.37248,-483.36963200000000,360.954112,-1285.5,-466.5,385.5,-83.253376,84.821416,139.63808,-0.23011300000000000,0.634263,0.303986,0.672569,66407.095,66409.482
1742703771.622110,,0,Tag,4,5.978,3.689,3.647,6.187,,9.707796,-1.1469370000000000,0.09947100000000000,-0.058872,-0.10138700000000000,0.124008,-1287.8616320000000,-480.17017600000000,356.590144,-1287.0,-463.5,381.0,-83.253992,84.828784,139.6308,-0.23011400000000000,0.634269,0.303986,0.672563,66427.095,66429.515
1742703771.641480,,0,Tag,3,5.978,3.586,6.236,,,9.706399,-1.154363,0.10022200000000000,0.138197,0.014892000000000000,0.115421,-1286.3683840000000,-484.800576,359.38816000000000,-1285.5,-468.0,384.0,-83.254104,84.83240000000000,139.627024,-0.23011300000000000,0.634273,0.303986,0.6725600000000000,66447.095,66449.478
1742703771.662010,,0,Tag,3,3.689,3.626,6.2,,,9.708735000000000,-1.145857,0.102321,-0.054894,0.016134,0.114733,-1286.356992,-489.093376,354.69030400000000,-1285.5,-472.5,379.5,-83.25470400000000,84.815456,139.645184,-0.230129,0.6342600000000000,0.303984,0.6725670000000000,66467.095,66469.481
1742703771.681480,,0,Tag,4,5.978,3.71,3.649,6.173,,9.715445000000000,-1.149978,0.094869,0.039836000000000000,-0.002201,0.11434700000000000,-1286.346368,-485.89395200000000,350.33008,-1285.5,-469.5,375.0,-83.25392,84.81200800000000,139.648448,-0.230125,0.6342560000000000,0.303986,0.672572,66487.095,66489.516
1742703771.701940,,0,Tag,4,5.901,3.656,3.614,6.18,,9.707541000000000,-1.1458140000000000,0.103507,0.032634000000000000,-0.055334000000000000,0.112149,-1283.361024,-486.164,356.331104,-1282.5,-469.5,381.0,-83.254424,84.820672,139.64038400000000,-0.230128,0.634262,0.303989,0.6725640000000000,66507.095,66509.482
1742703771.722440,,0,Tag,4,5.918,3.649,3.565,6.18,,9.719529,-1.16266,0.10188800000000000,-0.107556,0.016472,0.114546,-1280.362112,-477.17328,356.74352,-1279.5,-460.5,381.0,-83.2542,84.816504,139.644656,-0.230129,0.634258,0.30399,0.6725670000000000,66527.095,66529.48
1742703771.741840,,0,Tag,4,5.973,3.715,3.623,6.223,,9.705923,-1.156429,0.102698,0.025672,-0.058283000000000000,0.097913,-1292.36096,-484.665536,356.376576,-1291.5,-468.0,381.0,-83.25392,84.8108,139.650368,-0.230129,0.634253,0.303989,0.6725710000000000,66547.095,66549.514
1742703771.761190,,0,Tag,4,5.937,3.687,3.675,6.234,,9.689713,-1.150833,0.09990200000000000,-0.0023830000000000000,-0.054420000000000000,0.094442,-1286.358272,-477.10576,355.2304,-1285.5,-460.5,379.5,-83.254008,84.81556000000000,139.645152,-0.230126,0.634258,0.303988,0.672569,66567.095,66569.479
1742703771.781650,,0,Tag,4,5.918,3.712,3.616,6.13,,9.724231,-1.155055,0.11125300000000000,0.050309,0.031805,0.150998,-1281.876608,-478.94176,362.66608000000000,-1281.0,-462.0,387.0,-83.253608,84.81228,139.64792,-0.230121,0.6342560000000000,0.303986,0.672573,66587.095,66589.48
1742703771.801160,,0,Tag,4,5.995,3.691,3.572,6.184,,9.725839000000000,-1.145246,0.115936,-0.058632,-0.030482,0.126904,-1292.361472,-480.17017600000000,356.579136,-1291.5,-463.5,381.0,-83.2542,84.811216,139.64976,-0.23013,0.634255,0.303987,0.6725710000000000,66607.095,66609.517
1742703771.821600,,0,Tag,4,5.94,3.644,3.6,6.214,,9.703949,-1.139926,0.100839,0.06783300000000000,-0.003071,0.132029,-1283.38368,-480.575264,365.591776,-1282.5,-463.5,390.0,-83.25436000000000,84.82176,139.639136,-0.230127,0.634263,0.303989,0.6725640000000000,66627.095,66629.48
1742703771.842030,,0,Tag,4,6.006,3.661,3.586,6.146,,9.696877000000000,-1.1499410000000000,0.09154,-0.002052,0.068974,0.11709300000000000,-1287.880704,-474.51392,364.352352,-1287.0,-457.5,388.5,-83.255184,84.817216,139.645088,-0.23014100000000000,0.634259,0.303991,0.672562,66647.095,66649.479
1742703771.862450,,0,Tag,4,5.964,3.694,3.586,6.207,,9.703973,-1.144073,0.09931800000000000,0.109694,-0.005409,0.18492800000000000,-1295.38752,-477.64588800000000,367.19584,-1294.5,-460.5,391.5,-83.25523200000000,84.811832,139.65052800000000,-0.230143,0.634255,0.303989,0.672565,66667.095,66669.517
1742703771.881920,,0,Tag,4,5.992,3.701,3.595,6.207,,9.721828,-1.148009,0.10735200000000000,0.050068000000000000,-0.0909,0.110764,-1287.86944,-475.809888,359.789536,-1287.0,-459.0,384.0,-83.25544,84.820968,139.64212800000000,-0.230146,0.6342600000000000,0.30399500000000000,0.672557,66687.095,66689.479
1742703771.901320,,0,Tag,4,5.98,3.691,3.598,6.211,,9.708758,-1.15296,0.104997,0.173066,-0.004437,0.14998700000000000,-1292.36864,-481.80368,359.50848000000000,-1291.5,-465.0,384.0,-83.2552,84.817152,139.64592,-0.230146,0.634257,0.30399500000000000,0.6725600000000000,66707.095,66709.48300000000
