pi_system_time_s,status_code,uwb_data.local_node.id,uwb_data.local_node.role,uwb_data.anchor_info.anchor_count,dis_0,dis_1,dis_2,dis_3,imu_data.IMU_temp,imu_data.accX,imu_data.accY,imu_data.accZ,imu_data.gyroX,imu_data.gyroY,imu_data.gyroZ,imu_data.MagX,imu_data.MagY,imu_data.MagZ,imu_data.magX,imu_data.magY,imu_data.magZ,imu_data.roll,imu_data.tilt,imu_data.pan,imu_data.Qw,imu_data.Qx,imu_data.Qy,imu_data.Qz,imu_data.timestamp,imu_data.readtime
1742703963.119090,,0,Tag,4,5.966,4.036,3.173,5.727,,7.978609,-1.11815,1.4059470000000000,-90.584648,-0.821419,-0.321917,-1275.67168,-503.699232,278.984352,-1275.0,-490.5,304.5,-85.51136,107.78723200000000,102.26268000000000,-0.15551000000000000,0.683743,0.210828,0.681074,257927.095,257929.253
1742703963.139520,,0,Tag,4,5.868,4.03,3.138,5.743,,7.717476,-1.0394380000000000,1.648118,-90.414408,-0.7909610000000000,0.775393,-1269.6574720000000,-500.43228800000000,273.140352,-1269.0,-487.5,298.5,-85.508264,105.41971200000000,102.81210400000000,-0.144616,0.685858,0.20002200000000000,0.6845980000000000,257947.095,257949.21600000000
1742703963.159960,,0,Tag,4,5.988,4.082,3.09,5.693,,8.862372000000000,-0.8777930000000000,2.423069,-90.17520000000000,-1.930655,1.2757160000000000,-1277.1312640000000,-504.455072,262.430448,-1276.5,-492.0,288.0,-85.52114400000000,102.93837600000000,103.485208,-0.133856,0.6877330000000000,0.18911600000000000,0.687997,257967.095,257969.218
1742703963.179340,,0,Tag,4,5.947,4.101,3.035,5.6,,9.562295000000000,-1.2951360000000000,3.145086,-87.49004,-15.14283,-0.35951100000000000,-1278.598912,-496.35520000000000,249.27843200000000,-1278.0,-484.5,274.5,-85.510144,101.868872,102.751408,-0.122944,0.690105,0.178339,0.6905320000000000,257987.095,257989.25
1742703963.198730,,0,Tag,4,5.985,4.172,3.048,5.66,,8.847363,-0.199243,2.442341,-83.283368,-15.197154,-3.360684,-1281.5802880000000,-497.516064,241.71140800000000,-1281.0,-486.0,267.0,-85.414176,102.58090400000000,100.329752,-0.112037,0.693021,0.168606,0.6919100000000000,258007.095,258009.222
1742703963.219150,,0,Tag,4,5.992,4.189,3.014,5.624,,7.7925630000000000,-1.246729,2.3438340000000000,-86.744456,-5.656407,-2.9667150000000000,-1278.555392,-491.049696,231.49979200000000,-1278.0,-480.0,256.5,-85.34824000000000,102.768248,98.42409600000000,-0.101243,0.695564,0.15859500000000000,0.693388,258027.095,258029.222
1742703963.239570,,0,Tag,4,6.002,4.227,2.991,5.614,,8.425964,-0.7556230000000000,2.273993,-83.69783200000000,-9.145408,-1.776699,-1275.547648,-495.410016,228.30774400000000,-1275.0,-484.5,253.5,-85.286616,101.598872,97.89268,-0.09053400000000000,0.697253,0.14865600000000000,0.695372,258047.095,258049.256
1742703963.260010,,0,Tag,4,6.024,4.235,2.922,5.571,,8.941451000000000,-0.593251,2.2292290000000000,-84.747608,-9.549434,-1.35693,-1275.521792,-494.93744,217.81872000000000,-1275.0,-484.5,243.0,-85.26708000000000,101.188856,96.62159200000000,-0.080193,0.6991500000000000,0.13854,0.696823,258067.095,258069.228
1742703963.279480,,0,Tag,4,5.997,4.26,2.883,5.523,,9.230848,-0.622181,2.259962,-81.359344,-7.205855,-3.2559550000000000,-1281.511552,-487.242624,213.646304,-1281.0,-477.0,238.5,-85.2092,100.488976,95.65829600000000,-0.069695,0.700732,0.12875,0.698241,258087.095,258089.23200000000
1742703963.298860,,0,Tag,4,6.139,4.283,2.864,5.497,,8.647513,-0.8374460000000000,1.892447,-80.020568,-10.261943000000000,-2.146368,-1279.986432,-483.77312,203.295968,-1279.5,-474.0,228.0,-85.125408,99.871792,94.656784,-0.059290000000000000,0.702164,0.11936900000000000,0.6994280000000000,258107.095,258109.268
1742703963.319380,,0,Tag,4,6.06,4.309,2.89,5.473,,8.339461,-0.9772420000000000,1.821909,-77.911416,-9.930738,-3.142708,-1278.467072,-492.42630400000000,195.402432,-1278.0,-483.0,220.5,-85.026656,99.67704000000000,93.263424,-0.048975,0.703657,0.110237,0.700225,258127.095,258129.236
1742703963.338760,,0,Tag,3,6.124,4.388,2.825,,,8.543358,-1.9325190000000000,2.375002,-79.030872,-12.151505,-2.022498,-1278.445696,-486.02739200000000,186.681904,-1278.0,-477.0,211.5,-84.90472800000000,99.389736,91.98924800000000,-0.038665,0.7049560000000000,0.101396,0.7008990000000000,258147.095,258149.23500000000
1742703963.359200,,0,Tag,4,6.094,4.43,2.848,5.473,,8.340491,0.39453,2.049001,-74.85176,-11.475584,-3.1764830000000000,-1279.9239680000000,-484.123872,177.75512,-1279.5,-475.5,202.5,-84.78301600000000,99.46068800000000,90.386856,-0.028547,0.706313,0.092708,0.701221,258167.095,258169.27300000000
1742703963.379640,,0,Tag,4,6.135,4.432,2.784,5.382,,7.481312,-2.224447,1.96865,-75.71108,-12.070416,-2.35872,-1279.901952,-482.220352,168.832064,-1279.5,-474.0,193.5,-84.674728,99.61289600000000,88.68016,-0.018374000000000000,0.707623,0.083773,0.701365,258187.095,258189.21300000000
1742703963.400120,,0,Tag,4,6.169,4.476,2.717,5.339,,7.9714600000000000,-1.283123,1.900501,-72.59068000000000,-10.916937000000000,-4.2016980000000000,-1275.4026240000000,-476.226528,169.11312000000000,-1275.0,-468.0,193.5,-84.518272,99.49484800000000,87.32132,-0.008364,0.708634,0.075609,0.701463,258207.095,258209.212
1742703963.418530,,0,Tag,4,6.162,4.525,2.747,5.306,,7.594324000000000,-2.25398,1.6482520000000000,-73.17616800000000,-12.029762,-1.6288320000000000,-1278.39552,-474.59308800000000,166.176416,-1278.0,-466.5,190.5,-84.407208,99.69568,85.641048,0.0013580000000000000,0.709719,0.067118,0.701278,258227.095,258229.246
1742703963.439010,,0,Tag,4,6.196,4.533,2.745,5.306,,7.978061000000000,-1.49243,1.596434,-69.22472000000000,-9.815722,-2.48841,-1284.3772160000000,-472.757056,158.737088,-1284.0,-465.0,183.0,-84.28544,99.674576,84.228456,0.010878000000000000,0.710554,0.058978000000000000,0.701081,258247.095,258249.21
1742703963.459550,,0,Tag,4,6.399,4.612,2.671,5.291,,8.254457,-2.378057,1.848628,-68.82862400000000,-9.729218,-1.5887150000000000,-1281.3515520000000,-470.78601600000000,148.322944,-1281.0,-463.5,172.5,-84.181736,99.438688,83.06192,0.020112000000000000,0.7111380000000000,0.050930000000000000,0.700916,258267.095,258269.25
1742703963.479010,,0,Tag,4,6.399,4.645,2.676,5.267,,8.048582,-2.414533,1.940947,-65.70492400000000,-8.942291000000000,-2.234998,-1284.337664,-464.52214400000000,142.591904,-1284.0,-457.5,166.5,-84.064392,99.070376,82.07099200000000,0.029174,0.711534,0.043241000000000000,0.700712,258287.095,258289.25
1742703963.499470,,0,Tag,4,6.399,4.65,2.639,5.222,,7.9194950000000000,-2.535749,2.046752,-64.571556,-7.987508,-1.40974,-1285.823616,-458.25830400000000,136.86456000000000,-1285.5,-451.5,160.5,-83.960032,98.523952,81.30336800000000,0.037897,0.7117010000000000,0.035769000000000000,0.700546,258307.095,258309.215
1742703963.519900,,0,Tag,4,6.331,4.755,2.646,5.157,,7.883837,-2.973086,2.124965,-61.686468,-7.929739,-1.896509,-1281.32352,-459.756736,136.808064,-1281.0,-453.0,160.5,-83.846992,97.88332,80.665784,0.046462000000000000,0.711711,0.028582,0.7003500000000000,258327.095,258329.253
1742703963.539260,,0,Tag,4,6.568,4.731,2.669,5.109,,7.913913,-3.082363,2.1064600000000000,-59.246344,-8.427201,-1.5552710000000000,-1287.2938240000000,-462.21356800000000,124.670896,-1287.0,-456.0,148.5,-83.72933600000000,97.344824,79.98052800000000,0.054709,0.7116940000000000,0.021753000000000000,0.700017,258347.095,258349.25
1742703963.558620,,0,Tag,4,6.586,4.731,2.595,5.064,,7.748867,-3.539873,2.077627,-56.481996000000000,-8.47529,-1.134564,-1294.7872,-453.08784000000000,122.060744,-1294.5,-447.0,145.5,-83.61487200000000,96.930792,79.218792,0.062628,0.711673,0.015192000000000000,0.699548,258367.095,258369.215
1742703963.579090,,0,Tag,4,6.306,4.736,2.582,5.083,,7.957441000000000,-3.195776,2.0556,-53.55862,-7.826319,-1.128588,-1290.2805760000000,-446.958976,119.344944,-1290.0,-441.0,142.5,-83.498504,96.490472,78.547112,0.070169,0.71156,0.009043000000000000,0.699054,258387.095,258389.25
1742703963.598520,,0,Tag,4,6.344,4.839,2.591,5.064,,7.89502,-3.369872,1.8445180000000000,-50.847068,-7.930879,-1.4324490000000000,-1294.77696,-446.891488,117.835488,-1294.5,-441.0,141.0,-83.378312,96.09681600000000,77.883448,0.077389,0.7114160000000000,0.0032560000000000000,0.6984890000000000,258407.095,258409.245
1742703963.618970,,0,Tag,4,6.311,4.844,2.621,5.002,,7.8064,-3.6164160000000000,1.6633230000000000,-47.762724,-7.4676090000000000,-2.874036,-1290.274304,-437.83324800000000,116.753136,-1290.0,-432.0,139.5,-83.229816,95.74888,77.23124,0.084423,0.711266,-0.002006,0.697831,258427.095,258429.217
1742703963.639390,,0,Tag,4,6.511,4.865,2.595,5.014,,7.533301,-3.833623,1.487603,-46.170792,-6.911852,-0.640334,-1294.758656,-446.55392,110.343328,-1294.5,-441.0,133.5,-83.084912,95.429632,76.597568,0.091138,0.7110880000000000,-0.006998,0.697135,258447.095,258449.248
1742703963.659810,,0,Tag,4,6.611,4.901,2.545,4.949,,7.9641650000000000,-3.496823,1.526435,-43.503516,-6.231685,0.059817000000000000,-1291.748224,-441.85603200000000,106.05792,-1291.5,-436.5,129.0,-82.98391200000000,95.07168,76.04536,0.097328,0.7108130000000000,-0.011984,0.696511,258467.095,258469.248
1742703963.679190,,0,Tag,4,6.426,4.903,2.568,4.98,,8.271394000000000,-3.2361430000000000,1.692208,-41.326112000000000,-6.016146,-0.6239820000000000,-1293.245568,-431.299328,105.028392,-1293.0,-426.0,127.5,-82.888592,94.660136,75.597016,0.10318,0.7104580000000000,-0.016683,0.6959340000000000,258487.095,258489.214
1742703963.699720,,0,Tag,3,6.667,2.508,4.97,,,8.262992000000000,-2.9959060000000000,1.833186,-39.313252,-5.49857,-0.47187400000000000,-1296.2341120000000,-435.592128,100.323224,-1296.0,-430.5,123.0,-82.79288800000000,94.188952,75.25109600000000,0.108779,0.710025,-0.021103,0.695402,258507.095,258509.25400000000
1742703963.719130,,0,Tag,4,6.417,4.903,2.577,4.81,,8.207059,-2.675224,1.8989640000000000,-37.460984000000000,-5.231428,0.02514,-1300.734976,-426.601408,100.717272,-1300.5,-421.5,123.0,-82.7284,93.71440800000000,74.946272,0.113956,0.709542,-0.025476,0.69492,258527.095,258529.25
1742703963.738520,,0,Tag,3,6.453,5.03,4.865,,,8.63356,-2.606767,1.8880650000000000,-35.408536,-5.383332000000000,-0.505074,-1297.735424,-422.106048,100.927144,-1297.5,-417.0,123.0,-82.663344,93.23840800000000,74.68283200000000,0.118893,0.709035,-0.029594,0.6944470000000000,258547.095,258549.218
1742703963.758960,,0,Tag,4,6.455,5.049,2.577,4.848,,8.831692,-2.346316,1.819197,-33.895204,-5.083786,0.397024,-1305.21344,-420.20256,91.985704,-1305.0,-415.5,114.0,-82.60684000000000,92.85613600000000,74.36208000000000,0.123541,0.708576,-0.033548,0.693924,258567.095,258569.256
1742703963.779410,,0,Tag,4,6.507,5.057,2.492,4.882,,9.549877,-2.056424,1.651185,-32.602074,-4.623882,0.505282,-1305.224064,-423.40198400000000,96.345976,-1305.0,-418.5,118.5,-82.57908000000000,92.443336,74.09976,0.127848,0.708058,-0.037498,0.6934700000000000,258587.095,258589.22400000000
1742703963.799840,,0,Tag,4,6.617,5.006,2.561,4.88,,9.925059,-1.763471,1.579176,-31.669692000000000,-4.286172,0.346524,-1306.709504,-423.131936,90.348576,-1306.5,-418.5,112.5,-82.565968,92.046768,73.84280800000000,0.131931,0.7075280000000000,-0.041404000000000000,0.693024,258607.095,258609.22400000000
1742703963.819230,,0,Tag,4,6.538,5.069,2.506,4.889,,10.099088,-1.383989,1.507847,-31.86791,-4.862076,2.386282,-1297.710464,-415.63964800000000,90.708168,-1297.5,-411.0,112.5,-82.57704800000000,91.685296,73.560176,0.13580400000000000,0.706992,-0.045402,0.692572,258627.095,258629.257
1742703963.838590,,0,Tag,4,6.466,5.057,2.476,4.872,,9.972774,-1.298868,1.65183,-31.617614,-4.15297,0.563497,-1308.214016,-415.70716800000000,92.18089600000000,-1308.0,-411.0,114.0,-82.595576,91.303512,73.29868000000000,0.139627,0.706414,-0.049435,0.692125,258647.095,258649.225
1742703963.859040,,0,Tag,4,6.414,5.076,2.492,4.846,,10.167065,-1.1630590000000000,1.783229,-31.792366000000000,-4.663644,0.031251,-1305.1996160000000,-412.440224,86.32953600000000,-1305.0,-408.0,108.0,-82.60108,90.84651200000000,73.11724,0.143505,0.705765,-0.053346,0.691704,258667.095,258669.22100000000
1742703963.879490,,0,Tag,4,6.469,5.119,2.533,4.844,,10.153995,-0.850213,1.459028,-31.765326000000000,-5.036831000000000,1.393311,-1312.7032320000000,-412.50771200000000,87.80960000000000,-1312.5,-408.0,109.5,-82.63672800000000,90.56358400000000,72.759704,0.14719,0.705214,-0.057473000000000000,0.6911610000000000,258687.095,258689.26
1742703963.899920,,0,Tag,4,6.493,5.152,2.448,4.801,,10.364372,-0.7262220000000000,1.241374,-32.201278,-4.390216,1.273637,-1309.70048,-404.947968,86.656064,-1309.5,-400.5,108.0,-82.69040800000000,90.311352,72.36556,0.15079400000000000,0.70465,-0.061748,0.6905900000000000,258707.095,258709.222
1742703963.919320,,0,Tag,4,6.57,5.169,2.476,4.813,,10.422598000000000,-0.10042800000000000,1.137403,-32.232574,-4.239719,0.610437,-1317.186048,-401.680992,80.77900800000000,-1317.0,-397.5,102.0,-82.743616,90.046264,71.98288,0.154409,0.7040530000000000,-0.066024,0.690004,258727.095,258729.227
1742703963.938710,,0,Tag,4,6.563,5.215,2.543,4.801,,10.722179000000000,-0.16641400000000000,1.2438910000000000,-32.466294,-4.030923,-0.9634150000000000,-1315.686912,-394.188736,81.12024,-1315.5,-390.0,102.0,-82.775016,89.70808800000000,71.664264,0.158214,0.703384,-0.070209,0.689411,258747.095,258749.238
1742703963.959140,,0,Tag,4,6.43,5.207,2.612,4.748,,10.540634000000000,-0.024339,1.374738,-33.419384,-4.265548,-0.804049,-1312.675712,-396.98310400000000,76.497272,-1312.5,-393.0,97.5,-82.79818400000000,89.358408,71.347264,0.162126,0.7026820000000000,-0.0744,0.6887790000000000,258767.095,258769.201
1742703963.979590,,0,Tag,4,6.595,5.215,2.501,4.743,,10.363996,-0.22081000000000000,1.4067890000000000,-34.176208000000000,-4.569623,-0.625636,-1320.179072,-398.549088,77.909824,-1320.0,-394.5,99.0,-82.823032,88.994816,71.025384,0.16613900000000000,0.701932,-0.078709,0.6881080000000000,258787.095,258789.208
1742703963.999020,,0,Tag,4,6.423,5.243,2.529,4.736,,10.269692,-0.44038100000000000,1.334968,-34.890932,-4.804631,0.320083,-1323.176064,-390.98928,76.741608,-1323.0,-387.0,97.5,-82.849616,88.670424,70.64912,0.17022300000000000,0.701175,-0.083123,0.687363,258807.095,258809.24300000000
1742703964.019560,,0,Tag,4,6.39,5.241,2.572,4.731,,10.461951,-1.07445,1.38919,-35.836260000000000,-4.845893000000000,-2.369161,-1318.6503680000000,-390.516736,66.26359600000000,-1318.5,-387.0,87.0,-82.84966400000000,88.33492,70.271824,0.174536,0.7003890000000000,-0.08744200000000000,0.686545,258827.095,258829.21300000000
1742703964.040030,,0,Tag,4,6.478,5.279,2.568,4.674,,10.292883,-1.2095450000000000,1.183589,-35.835244000000000,-4.648148,-2.431527,-1320.16128,-392.217696,70.68771200000000,-1320.0,-388.5,91.5,-82.82602400000000,88.076792,69.808472,0.179029,0.699643,-0.09167300000000000,0.685597,258847.095,258849.218
1742703964.059510,,0,Tag,4,6.523,5.253,2.598,4.669,,10.284082,-1.533849,1.3504400000000000,-35.734032,-4.114764,-1.9232910000000000,-1323.147776,-379.96003200000000,65.226732,-1323.0,-376.5,85.5,-82.781616,87.731624,69.428656,0.183673,0.698812,-0.09578100000000000,0.684653,258867.095,258869.25400000000
1742703964.078890,,0,Tag,4,6.532,5.416,2.579,4.743,,10.194768,-1.7361370000000000,1.337329,-35.468752000000000,-4.5634560000000000,-1.933554,-1321.643648,-384.38787200000000,63.529436,-1321.5,-381.0,84.0,-82.735264,87.382672,69.057088,0.188297,0.6979570000000000,-0.099843,0.683689,258887.095,258889.22400000000
1742703964.099320,,0,Tag,4,6.613,5.356,2.635,4.688,,10.439938,-2.078467,1.4985550000000000,-35.186932,-4.1780410000000000,-1.8462940000000000,-1321.647616,-381.458464,65.162888,-1321.5,-378.0,85.5,-82.680768,86.996416,68.727272,0.192941,0.6970530000000000,-0.103818,0.682723,258907.095,258909.223
1742703964.118700,,0,Tag,4,6.556,5.394,2.632,4.662,,10.456918,-2.3969930000000000,1.5557110000000000,-34.524176,-4.064548000000000,-2.311106,-1321.637504,-373.76368000000000,61.005148,-1321.5,-370.5,81.0,-82.607288,86.587896,68.4296,0.19763700000000000,0.696126,-0.107607,0.681739,258927.095,258929.259
1742703964.139170,,0,Tag,4,6.518,5.48,2.614,4.652,,10.381906000000000,-2.771308,1.638741,-33.710144,-4.083727,-2.224243,-1321.6304640000000,-370.63174400000000,58.143308,-1321.5,-367.5,78.0,-82.52032,86.155056,68.17028000000000,0.20232800000000000,0.6951730000000000,-0.111218,0.680755,258947.095,258949.227
1742703964.159730,,0,Tag,4,6.518,5.478,2.66,4.638,,10.415516,-3.057204,1.579299,-32.517884000000000,-4.223064,-2.031652,-1318.612608,-367.29728,50.793516,-1318.5,-364.5,70.5,-82.424512,85.79264000000000,67.860784,0.20693600000000000,0.694275,-0.11465400000000000,0.679715,258967.095,258969.228
1742703964.179720,,0,Tag,4,6.518,5.413,2.637,4.58,,10.646798000000000,-3.198509,1.3793230000000000,-31.196866,-3.816656,-1.9219500000000000,-1324.624128,-361.506016,55.54416,-1324.5,-358.5,75.0,-82.328632,85.467184,67.53785600000000,0.211395,0.693407,-0.117946,0.678665,258987.095,258989.269
1742703964.198420,,0,Tag,4,6.518,5.375,2.69,4.576,,10.938532,-3.4404180000000000,1.2660370000000000,-30.122334,-2.811161,-2.6516760000000000,-1320.11328,-361.303456,51.059884,-1320.0,-358.5,70.5,-82.222672,85.11035200000000,67.273,0.215754,0.6925240000000000,-0.121005,0.677655,259007.095,259009.24000000000
1742703964.218960,,0,Tag,4,6.518,5.483,2.646,4.564,,10.782403000000000,-3.539459,1.059188,-28.86855,-2.261009,-3.751534,-1318.628352,-358.57660800000000,57.192308,-1318.5,-355.5,76.5,-82.09808,84.730576,67.057616,0.22006600000000000,0.691639,-0.123779,0.676671,259027.095,259029.237
1742703964.239820,,0,Tag,4,6.518,5.495,2.687,4.528,,10.529401,-3.6943600000000000,0.918751,-27.613906,-0.34834300000000000,-5.457934,-1324.613504,-358.30656,51.183892,-1324.5,-355.5,70.5,-81.93461600000000,84.292632,66.9253,0.224465,0.690731,-0.12615000000000000,0.675715,259047.095,259049.27300000000
1742703964.259240,,0,Tag,4,6.518,5.526,2.685,4.499,,11.201226,-4.049029,1.139927,-25.988646,-0.426649,-6.166411,-1321.60256,-356.605568,46.763452,-1321.5,-354.0,66.0,-81.730552,83.68771200000000,66.989068,0.228953,0.689704,-0.12806600000000000,0.674897,259067.095,259069.236
1742703964.279630,,0,Tag,4,6.518,5.478,2.736,4.525,,11.190795,-4.28775,1.002524,-23.448406,-2.499323,-3.071319,-1321.6094720000000,-361.23596800000000,49.557784,-1321.5,-358.5,69.0,-81.552992,83.332576,66.844664,0.23300000000000000,0.688906,-0.12992300000000000,0.673972,259087.095,259089.236
1742703964.298940,,0,Tag,4,6.518,5.428,2.756,4.542,,11.049249,-4.426399,0.8374740000000000,-21.291688,-2.213554,-1.649554,-1326.106752,-352.17769600000000,48.453404,-1326.0,-349.5,67.5,-81.421352,83.17008800000000,66.553832,0.236472,0.688299,-0.13180800000000000,0.673016,259107.095,259109.269
1742703964.319330,,0,Tag,4,6.518,5.483,2.759,4.504,,11.351472,-4.422662,0.8305820000000000,-19.65962,-1.872342,-2.009783,-1326.099712,-349.045792,45.59156,-1326.0,-346.5,64.5,-81.298992,82.976984,66.334116,0.239651,0.6876980000000000,-0.13350100000000000,0.672172,259127.095,259129.236
1742703964.339730,,0,Tag,4,6.518,5.495,2.777,4.58,,11.301296000000000,-4.771818,0.6105420000000000,-17.62335,-2.21327,-2.244866,-1317.088512,-351.84016000000000,40.983276,-1317.0,-349.5,60.0,-81.16356000000000,82.881384,66.05266,0.24268100000000000,0.6872270000000000,-0.134909,0.671285,259147.095,259149.236
1742703964.359040,,0,Tag,4,6.518,5.507,2.779,4.554,,11.313101,-4.850553,0.522448,-15.222226,-1.6781440000000000,-1.7876430000000000,-1327.61088,-349.24832,50.08318,-1327.5,-346.5,69.0,-81.023352,82.8438,65.75714000000000,0.245472,0.6868600000000000,-0.13602900000000000,0.670419,259167.095,259169.271
1742703964.379390,,0,Tag,4,6.518,5.569,2.855,4.491,,11.650032,-4.663203,0.499725,-13.264577,-1.077334,-2.481207,-1327.596288,-345.981344,44.224476000000000,-1327.5,-343.5,63.0,-80.889752,82.77532,65.537536,0.247961,0.686511,-0.13691500000000000,0.669679,259187.095,259189.236
1742703964.399790,,0,Tag,4,6.518,5.492,2.814,4.54,,11.689449,-4.300491,0.310834,-11.003948,-1.3457600000000000,-1.884745,-1321.60384,-344.61792000000000,47.303536,-1321.5,-342.0,66.0,-80.766032,82.75432000000000,65.31762000000000,0.25010700000000000,0.6862580000000000,-0.13758600000000000,0.669003,259207.095,259209.238
1742703964.419210,,0,Tag,4,13.703,5.487,2.892,4.47,,11.755442000000000,-4.677366,0.149828,-8.872829,-0.944504,-1.592523,-1320.099584,-350.544224,45.538736,-1320.0,-348.0,64.5,-80.648088,82.79757600000000,65.07118800000000,0.25198700000000000,0.68611,-0.138076,0.668347,259227.095,259229.27300000000
1742703964.438570,,0,Tag,4,13.795,5.466,2.8,4.487,,12.078964,-4.639435,-0.024825,-6.476438,-0.729529,-1.120214,-1330.607616,-343.18697600000000,48.847452,-1330.5,-340.5,67.5,-80.53903200000000,82.870144,64.844712,0.25352000000000000,0.686049,-0.13833100000000000,0.667778,259247.095,259249.237
1742703964.458970,,0,Tag,4,13.795,5.516,2.89,4.509,,12.143783000000000,-4.3791390000000000,-0.19266900000000000,-4.524968000000000,-0.21834600000000000,-1.3384370000000000,-1323.104,-343.119488,47.367372000000000,-1323.0,-340.5,66.0,-80.43508,82.98554400000000,64.62123200000000,0.254747,0.686085,-0.138351,0.6672700000000000,259267.095,259269.23500000000
1742703964.479370,,0,Tag,4,13.795,5.463,2.825,4.578,,12.261925,-4.396152,-0.172453,-2.919749,0.552777,-3.0584090000000000,-1324.60352,-347.614848,47.161172,-1324.5,-345.0,66.0,-80.31156,83.056528,64.47368,0.255913,0.686125,-0.13805400000000000,0.666843,259287.095,259289.267
1742703964.499840,,0,Tag,4,13.795,5.49,2.897,4.493,,12.438492,-4.622892,-0.423774,-1.282563,0.496011,-3.322157,-1317.114752,-347.81737600000000,51.674824,-1317.0,-345.0,70.5,-80.16940800000000,83.177224,64.311492,0.256975,0.686271,-0.13744,0.666412,259307.095,259309.237
1742703964.519240,,0,Tag,4,13.795,5.48,2.841,4.592,,13.205292,-4.8035560000000000,-0.612231,0.6036820000000000,0.9593120000000000,-5.29666,-1318.6187520000000,-344.887968,53.304608000000000,-1318.5,-342.0,72.0,-80.000512,83.350184,64.1345,0.257967,0.686533,-0.13644500000000000,0.6659620000000000,259327.095,259329.26200000000
1742703964.539650,,0,Tag,4,10.695,5.492,2.881,4.552,,13.483903,-4.740786,-0.535682,2.6444580000000000,0.12489,-6.802273,-1324.6081280000000,-340.190048,48.99716,-1324.5,-337.5,67.5,-79.805736,83.598888,63.921936000000000,0.258862,0.686943,-0.135065,0.665474,259347.095,259349.259
1742703964.558980,,0,Tag,4,10.695,5.485,2.812,4.554,,13.12291,-4.84905,0.015216000000000000,5.4719110000000000,-0.94022,-3.548707,-1315.6110080000000,-349.24832,50.112556,-1315.5,-346.5,69.0,-79.60501600000000,83.919944,63.68114,0.25951800000000000,0.6874940000000000,-0.133399,0.6649850000000000,259367.095,259369.227
1742703964.579490,,0,Tag,4,10.695,5.502,2.89,4.535,,12.136064,-4.743489000000000,0.072047,8.271339,-3.08986,-2.516278,-1320.114816,-346.318912,51.734988000000000,-1320.0,-343.5,70.5,-79.473128,84.4374,63.297636,0.259413,0.688296,-0.131881,0.664499,259387.095,259389.257
1742703964.598890,,0,Tag,4,10.695,5.487,2.807,4.506,,12.551851,-4.721914,0.21126400000000000,10.306728,-5.001638,-3.7136800000000000,-1320.114816,-346.318912,51.734988000000000,-1320.0,-343.5,70.5,-79.349096,85.06759200000000,62.845376000000000,0.258976,0.68928,-0.130179,0.6639850000000000,259407.095,259409.255
1742703964.619320,,0,Tag,4,10.695,5.526,2.853,4.506,,12.432955,-5.492393,-0.049229000000000000,12.98817,-6.485438000000000,-4.609356,-1326.107264,-347.68233600000000,48.655932,-1326.0,-345.0,67.5,-79.17704000000000,85.969184,62.162816,0.258508,0.690662,-0.128005,0.663153,259427.095,259429.214
1742703964.639730,,0,Tag,4,10.695,5.504,2.805,4.521,,11.107951,-4.687043,-0.580341,13.480203,3.8085360000000000,-5.765091,-1327.610496,-352.245248,49.948160000000000,-1327.5,-349.5,69.0,-79.003952,86.70752,61.698424000000000,0.257752,0.691939,-0.125468,0.662601,259447.095,259449.25
1742703964.660200,,0,Tag,4,10.695,5.49,2.848,4.518,,11.701926,-4.865203,0.169938,17.645112000000000,1.088881,-0.8304660000000000,-1327.632512,-351.15184,59.006256,-1327.5,-348.0,78.0,-78.82248800000000,86.735192,61.978784,0.257022,0.6924400000000000,-0.122497,0.662917,259467.095,259469.249
1742703964.678530,,0,Tag,4,10.695,5.478,2.812,4.493,,11.067314,-4.955363,-0.524559,18.863138,2.1837430000000000,-0.693045,-1323.1246080000000,-357.010656,55.750368000000000,-1323.0,-354.0,75.0,-78.714784,87.05448,62.027488,0.255438,0.693286,-0.11969100000000000,0.663158,259487.095,259489.217
1742703964.698950,,0,Tag,4,10.695,5.435,2.839,4.552,,11.872192,-5.190283,0.103672,20.207908,6.6227600000000000,1.8004260000000000,-1320.127872,-361.57350400000000,57.053612000000000,-1320.0,-358.5,76.5,-78.63612000000000,87.088168,62.393612,0.253573,0.693796,-0.116796,0.663856,259507.095,259509.249
1742703964.719370,,0,Tag,3,10.695,5.449,2.793,,,13.743796,-4.8418590000000000,0.966864,23.614538,-3.385859,-1.4130370000000000,-1320.1283840000000,-357.078144,57.256140000000000,-1320.0,-354.0,76.5,-78.544176,87.175136,62.759144,0.251465,0.694421,-0.113512,0.664574,259527.095,259529.248
1742703964.739810,,0,Tag,4,10.695,5.466,2.809,4.552,,10.229449000000000,-5.05629,1.495905,27.61149,-0.357178,-0.23502100000000000,-1326.131584,-360.14256,58.604868000000000,-1326.0,-357.0,78.0,-78.405552,88.468952,61.975096,0.248965,0.6965860000000000,-0.10991900000000000,0.6638530000000000,259547.095,259549.217
1742703964.759210,,0,Tag,3,10.695,2.789,4.516,,,10.886382,-4.1007490000000000,1.299598,27.059262,2.120831,1.7695860000000000,-1324.6272,-367.567328,56.772552,-1324.5,-364.5,76.5,-78.361632,88.748768,62.23806,0.245994,0.6974740000000000,-0.106428,0.664597,259567.095,259569.253
1742703964.779620,,0,Tag,4,10.695,5.466,2.782,4.528,,10.478715,-4.609375,1.4088750000000000,29.90962,0.096985,0.40165600000000000,-1327.63392,-372.197696,59.559536000000000,-1327.5,-369.0,79.5,-78.29176,89.02646400000000,62.519108000000000,0.243078,0.698379,-0.10267600000000000,0.6653090000000000,259587.095,259589.25100000000
1742703964.798990,,0,Tag,4,10.695,5.435,2.805,4.545,,10.684361000000000,-4.214792,1.010924,32.298038,0.749547,0.673424,-1318.6448640000000,-373.898688,64.00935200000000,-1318.5,-370.5,84.0,-78.22912,89.45856000000000,62.709896,0.239699,0.699507,-0.098619,0.665963,259607.095,259609.215
1742703964.819470,,0,Tag,4,10.695,5.447,2.782,4.499,,10.520905000000000,-4.45962,1.088458,34.672884000000000,0.501186,0.19685900000000000,-1321.6404480000000,-379.825024,62.233536000000000,-1321.5,-376.5,82.5,-78.161208,89.89119200000000,62.943324,0.236094,0.700656,-0.094261,0.666674,259627.095,259629.253
1742703964.838850,,0,Tag,4,10.695,5.442,2.694,4.545,,9.81641,-4.618692000000000,1.1790400000000000,36.736204,-0.87279,0.13103100000000000,-1323.130496,-370.63174400000000,58.139632,-1323.0,-367.5,78.0,-78.085296,90.417816,63.123976,0.232261,0.70194,-0.089626,0.6673090000000000,259647.095,259649.245
1742703964.859260,,0,Tag,4,10.695,5.442,2.736,4.652,,9.365809000000000,-4.526826,1.2041390000000000,39.106532,-1.0563260000000000,-0.096347,-1321.663104,-374.236224,71.49416,-1321.5,-370.5,91.5,-78.003624,91.07396,63.219448,0.228156,0.703399,-0.08472000000000000,0.667829,259667.095,259669.24300000000
1742703964.879650,,0,Tag,4,10.695,5.42,2.667,4.619,,8.938964,-4.606704,1.188096,40.894476,3.448209,2.28526,-1324.6649600000000,-390.786752,72.24264,-1324.5,-387.0,93.0,-77.927944,91.609856,63.481728,0.223774,0.704708,-0.079522,0.66857,259687.095,259689.28100000000
1742703964.900040,,0,Tag,4,10.695,5.363,2.697,4.657,,9.551198,-4.3894330000000000,1.5251110000000000,42.906968,5.322833,2.7851270000000000,-1321.6832,-392.62278400000000,79.674624,-1321.5,-388.5,100.5,-77.895816,91.768024,64.16410000000000,0.219003,0.705498,-0.07420400000000000,0.6699270000000000,259707.095,259709.25100000000
1742703964.919480,,0,Tag,4,10.695,5.365,2.635,4.679,,9.846873,-4.570853,1.678283,45.368292,5.526145,2.186447,-1315.6581120000000,-387.654816,69.402832,-1315.5,-384.0,90.0,-77.87796,91.862552,64.959464,0.21387000000000000,0.706187,-0.068642,0.671451,259727.095,259729.25100000000
1742703964.938910,,0,Tag,4,10.695,5.363,2.669,4.738,,9.675144,-4.225121,1.6426240000000000,47.799928,5.706872,1.896688,-1320.168064,-398.34656000000000,73.414536,-1320.0,-394.5,94.5,-77.85298400000000,92.002264,65.757988,0.20847,0.7069220000000000,-0.062747,0.672951,259747.095,259749.286
1742703964.959420,,0,Tag,3,6.441,2.644,4.719,,,9.587385,-4.236708,1.942313,49.908436000000000,7.586353,1.442594,-1317.193472,-400.317568,83.84337600000000,-1317.0,-396.0,105.0,-77.815184,92.052216,66.691872,0.202892,0.7075240000000000,-0.056459000000000000,0.674578,259767.095,259769.257
1742703964.979880,,0,Tag,4,6.441,5.363,2.641,4.741,,9.640189,-4.1857170000000000,2.129461,52.312460000000000,6.856524000000000,1.104981,-1318.685824,-403.179488,80.707824,-1318.5,-399.0,102.0,-77.77936,92.038944,67.73324,0.197046,0.708009,-0.049886,0.676318,259787.095,259789.24300000000
1742703965.000310,,0,Tag,4,6.441,5.306,2.655,4.755,,9.576212,-4.360912,2.1242290000000000,54.510116,7.562870000000000,0.9414580000000000,-1315.692672,-407.809824,83.509496,-1315.5,-403.5,105.0,-77.734344,92.09427200000000,68.751272,0.19095300000000000,0.7085430000000000,-0.042992000000000000,0.677978,259807.095,259809.284
1742703965.018680,,0,Tag,4,6.584,5.294,2.618,4.836,,9.728778,-4.57255,2.15498,56.687244,8.15307,1.2979270000000000,-1312.6888960000000,-410.73923200000000,81.883392,-1312.5,-406.5,103.5,-77.686632,92.12128800000000,69.84434400000000,0.18459300000000000,0.708989,-0.035779,0.679689,259827.095,259829.25100000000
1742703965.039140,,0,Tag,4,6.789,5.234,2.612,4.774,,9.690465,-4.304431,2.22106,59.268448,8.522326,1.4285410000000000,-1315.691648,-416.800544,83.104432,-1315.5,-412.5,105.0,-77.646688,92.147992,70.986424,0.17788100000000000,0.709371,-0.028307,0.681431,259847.095,259849.25
1742703965.059630,,0,Tag,4,6.514,5.224,2.552,4.789,,9.631435,-4.1419750000000000,2.44686,61.25384,9.07599,1.479873,-1314.2201600000000,-424.832928,94.758,-1314.0,-420.0,117.0,-77.61608,92.155504,72.191456,0.170841,0.709653,-0.020614,0.6832120000000000,259867.095,259869.285
1742703965.080070,,0,Tag,4,6.73,5.188,2.63,4.801,,9.763909,-3.695033,2.6342530000000000,63.110608,8.94728,2.200252,-1309.719936,-427.829824,94.634,-1309.5,-423.0,117.0,-77.60771200000000,92.158808,73.442264,0.163403,0.709843,-0.012795000000000000,0.6850230000000000,259887.095,259889.25
1742703965.098430,,0,Tag,4,6.541,5.121,2.522,4.88,,10.006429000000000,-3.39857,2.721556,64.84565600000000,8.344942,2.3407900000000000,-1314.230656,-429.53081600000000,99.05076800000000,-1314.0,-424.5,121.5,-77.61936,92.212592,74.676136,0.155615,0.7100100000000000,-0.0049,0.6867640000000000,259907.095,259909.25400000000
1742703965.118880,,0,Tag,4,6.518,5.104,2.586,4.925,,10.174342,-3.031762,2.724141,66.316268,7.883563,2.098626,-1309.744896,-435.794688,104.785472,-1309.5,-430.5,127.5,-77.64168,92.35146400000000,75.855136,0.14754600000000000,0.710197,0.003101,0.6883590000000000,259927.095,259929.288
1742703965.139350,,0,Tag,4,6.556,5.128,2.416,4.98,,10.016923,-2.568333,2.74486,67.986496,7.399728,1.944365,-1309.762688,-440.62758400000000,112.07509600000000,-1309.5,-435.0,135.0,-77.66971200000000,92.543184,77.012368,0.13923,0.710359,0.011255,0.689838,259947.095,259949.257
1742703965.159830,,0,Tag,4,6.489,5.026,2.6,5.016,,9.319641000000000,-2.255169,2.498106,68.86496,7.935329000000000,2.180929,-1308.2805760000000,-445.460512,119.368392,-1308.0,-439.5,142.5,-77.712728,92.80380800000000,78.126376,0.13064300000000000,0.710511,0.019468,0.691178,259967.095,259969.255
1742703965.179330,,0,Tag,4,6.52,5.011,2.559,5.049,,9.473169,-2.196951,2.437273,69.865488,10.330112,1.8035190000000000,-1306.78976,-462.146048,123.124736,-1306.5,-456.0,147.0,-77.757616,92.940192,79.38592,0.12192100000000000,0.710397,0.027825,0.692601,259987.095,259989.295
1742703965.198780,,0,Tag,4,6.699,4.968,2.589,5.042,,9.815493,-2.10622,2.509843,70.892512,10.40747,2.201572,-1311.301376,-456.354784,127.87905600000000,-1311.0,-450.0,151.5,-77.809904,92.98036000000000,80.764408,0.11301400000000000,0.71005,0.036291,0.6940730000000000,260007.095,260009.259
1742703965.219230,,0,Tag,4,6.604,4.975,2.563,5.018,,9.542006000000000,-1.6456170000000000,2.483036,71.612488,10.353109,2.114049,-1306.819072,-462.68614400000000,135.11216,-1306.5,-456.0,159.0,-77.87452000000000,93.04573600000000,82.13768,0.103891,0.709629,0.044798,0.6954320000000000,260027.095,260029.263
1742703965.238660,,0,Tag,4,6.448,4.882,2.602,5.059,,9.295721,-1.630229,2.631507,71.845272,10.701773,2.1503100000000000,-1300.834304,-458.460832,141.32312,-1300.5,-451.5,165.0,-77.94376,93.076416,83.553304,0.09468,0.709056,0.053322000000000000,0.696728,260047.095,260049.296
1742703965.259090,,0,Tag,4,6.59,4.911,2.658,5.152,,9.668101,-1.47082,2.6638130000000000,72.483536,10.520711,3.585952,-1300.8554240000000,-467.85664000000000,149.90864,-1300.5,-460.5,174.0,-78.02,93.08874400000000,84.994824,0.085366,0.708355,0.061845,0.69794,260067.095,260069.261
1742703965.279520,,0,Tag,4,6.408,4.836,2.639,5.131,,9.2226,-1.2309380000000000,2.7529020000000000,71.82114400000000,10.390889,6.09652,-1300.85824,-475.416384,151.06952000000000,-1300.5,-468.0,175.5,-78.154456,93.105272,86.433448,0.075672,0.707572,0.070009,0.6990800000000000,260087.095,260089.26
1742703965.299950,,0,Tag,4,6.768,4.779,2.667,5.186,,9.157967,-1.860234,2.854056,72.921992,11.639927,3.770698,-1296.3659520000000,-474.05299200000000,154.144928,-1296.0,-466.5,178.5,-78.287904,93.063544,87.927696,0.06598800000000000,0.706622,0.07815700000000000,0.7001570000000000,260107.095,260109.296
1742703965.318330,,0,Tag,4,6.633,4.762,2.66,5.262,,9.18235,-1.037617,2.782221,73.961992,10.334352000000000,2.668212,-1296.398976,-474.660576,167.6308,-1296.0,-466.5,192.0,-78.382312,92.999056,89.47792800000000,0.056327000000000000,0.70551,0.086737,0.701112,260127.095,260129.26200000000
1742703965.338740,,0,Tag,4,6.534,4.681,2.646,5.356,,8.460610000000000,-1.45191,2.6485400000000000,74.882984,10.460724000000000,1.109497,-1293.405824,-479.29094400000000,170.43248,-1293.0,-471.0,195.0,-78.445672,93.027816,90.945504,0.046776,0.7043850000000000,0.095554,0.701799,260147.095,260149.293
1742703965.359180,,0,Tag,4,6.462,4.69,2.685,5.375,,8.391013,-1.128305,2.740472,75.756208,10.965167,0.964366,-1294.916352,-483.988864,174.721552,-1294.5,-475.5,199.5,-78.494384,93.027176,92.46652,0.037161,0.703083,0.10459300000000000,0.70239,260167.095,260169.32700000000
1742703965.379590,,0,Tag,4,6.462,4.698,2.729,5.399,,8.209020000000000,-1.131937,2.67904,76.49800000000000,10.571669,1.1906460000000000,-1296.438528,-482.895488,183.775984,-1296.0,-474.0,208.5,-78.551208,93.024992,94.00072,0.027416,0.701658,0.113636,0.702859,260187.095,260189.294
1742703965.400070,,0,Tag,4,6.462,4.559,2.756,5.399,,8.516985,-1.247976,2.6040640000000000,77.063232,11.061138,0.842959,-1294.9568,-483.233056,191.271808,-1294.5,-474.0,216.0,-78.601264,93.02752800000000,95.54471200000000,0.017619,0.700101,0.12279,0.703185,260207.095,260209.296
1742703965.419440,,0,Tag,4,6.281,4.556,2.791,5.468,,8.594562,-1.6114630000000000,2.613429,78.03552000000000,10.956363,0.099205,-1293.4784,-486.63500800000000,200.13104000000000,-1293.0,-477.0,225.0,-78.633168,93.018096,97.116328,0.007833,0.6983770000000000,0.132128,0.703384,260227.095,260229.332
1742703965.438790,,0,Tag,4,6.374,4.518,2.74,5.483,,8.336998,-1.709525,2.55985,79.24545600000000,10.813833000000000,-0.444413,-1293.513856,-499.29776,214.575264,-1293.0,-489.0,240.0,-78.644336,93.053072,98.666984,-0.001966,0.696534,0.141713,0.703386,260247.095,260249.30000000000
1742703965.459250,,0,Tag,4,6.326,4.438,2.789,5.526,,8.045519000000000,-1.806776,2.619226,80.635632,10.555066,-1.312614,-1290.5136640000000,-500.79619200000000,214.51510400000000,-1290.0,-490.5,240.0,-78.636408,93.12508,100.205856,-0.011799000000000000,0.694553,0.15154400000000000,0.703199,260267.095,260269.302
1742703965.478710,,0,Tag,4,6.243,4.401,2.858,5.562,,7.864247,-1.9895290000000000,2.747725,81.97504000000000,11.029861,-1.319805,-1290.528768,-496.57088,220.71136000000000,-1290.0,-486.0,246.0,-78.61206400000000,93.198488,101.77053600000000,-0.021692,0.69238,0.161611,0.702866,260287.095,260289.33000000000
1742703965.499150,,0,Tag,4,6.324,4.392,2.876,5.559,,7.5556850000000000,-2.368211,2.8096100000000000,83.566704,11.620587000000000,-0.430172,-1287.55008,-505.96672000000000,229.30422400000000,-1287.0,-495.0,255.0,-78.58513600000000,93.23087200000000,103.404296,-0.031738000000000000,0.6899650000000000,0.17182600000000000,0.7024350000000000,260307.095,260309.298
1742703965.519580,,0,Tag,4,6.25,4.323,2.878,5.574,,7.9290260000000000,-2.7135760000000000,3.1224750000000000,85.197216,12.716816,0.7831630000000000,-1284.564864,-504.73830400000000,235.37280000000000,-1284.0,-493.5,261.0,-78.57771200000000,93.139984,105.192712,-0.042106,0.687224,0.182061,0.7019990000000000,260327.095,260329.302
1742703965.540000,,0,Tag,4,6.189,4.323,2.897,5.583,,7.888687,-2.8654510000000000,3.22276,87.013088,12.890879,0.76199,-1280.086272,-511.137184,244.104368,-1279.5,-499.5,270.0,-78.572248,93.038552,107.029432,-0.052712000000000000,0.684257,0.192464,0.701405,260347.095,260349.336
1742703965.558400,,0,Tag,4,6.279,4.258,2.89,5.609,,7.644598000000000,-2.950602,3.022808,88.829808,13.099592,1.305794,-1278.605568,-502.484,252.00526400000000,-1278.0,-490.5,277.5,-78.563296,92.98396800000000,108.85792,-0.063517,0.681117,0.20307700000000000,0.7005740000000000,260367.095,260369.302
1742703965.578840,,0,Tag,4,6.232,4.214,2.97,5.691,,7.425846,-2.970716,3.015164,90.491608,14.065545,2.485753,-1283.134464,-506.02102400000000,263.846656,-1282.5,-493.5,289.5,-78.573216,92.907056,110.743496,-0.074642,0.6777490000000000,0.213729,0.6995740000000000,260387.095,260389.34100000000
1742703965.599260,,0,Tag,4,6.119,4.198,3.021,5.712,,7.535277,-2.8849680000000000,3.2484280000000000,92.740192,14.588876000000000,2.543897,-1278.646016,-503.226656,268.488,-1278.0,-490.5,294.0,-78.595512,92.775688,112.723568,-0.086084,0.67409,0.22447500000000000,0.6984280000000000,260407.095,260409.351
1742703965.619680,,0,Tag,4,6.171,4.112,3.028,5.818,,7.754651,-2.6570900000000000,3.616719,95.22109600000000,15.384904000000000,2.673942,-1277.18272,-503.90176000000000,283.47596800000000,-1276.5,-490.5,309.0,-78.623432,92.56603200000000,114.828136,-0.097843,0.670084,0.235377,0.697145,260427.095,260429.317
1742703965.639070,,0,Tag,4,6.157,4.078,3.044,5.779,,7.485576,-2.418233,3.885043,97.222584,15.450725000000000,2.666671,-1280.18624,-505.467744,284.89955200000000,-1279.5,-492.0,310.5,-78.66312000000000,92.292896,117.041184,-0.109945,0.665752,0.246384,0.6956860000000000,260447.095,260449.35
1742703965.659530,,0,Tag,4,6.074,4.028,3.092,5.834,,7.082082,-2.251066,4.134474,99.375096,15.467238,1.9006810000000000,-1281.704448,-505.80531200000000,292.388032,-1281.0,-492.0,318.0,-78.69748,92.018232,119.2982,-0.122252,0.6611350000000000,0.257586,0.6939760000000000,260467.095,260469.347
1742703965.679940,,0,Tag,4,6.076,3.968,3.161,5.889,,6.853244,-1.9185970000000000,4.10302,100.981864,15.337252,2.0600170000000000,-1281.7306880000000,-500.284064,303.147104,-1281.0,-486.0,328.5,-78.73087200000000,91.770264,121.56768800000000,-0.13475500000000000,0.656269,0.268939,0.69197,260487.095,260489.313
1742703965.700370,,0,Tag,4,6.036,3.905,3.147,5.913,,6.873212,-1.8232580000000000,3.8898920000000000,102.350336,15.378147000000000,2.246553,-1281.7632000000000,-506.88550400000000,316.36294400000000,-1281.0,-492.0,342.0,-78.769184,91.56072000000000,123.82804,-0.14742,0.651195,0.280352,0.6896480000000000,260507.095,260509.344
1742703965.718700,,0,Tag,4,6.063,3.877,3.274,6.024,,7.158605,-1.341978,3.6141230000000000,103.48756,15.783032000000000,2.605569,-1277.264,-499.393216,316.71152,-1276.5,-484.5,342.0,-78.819896,91.405864,126.06148000000000,-0.160267,0.645945,0.291774,0.686975,260527.095,260529.34100000000
1742703965.739160,,0,Tag,4,5.961,3.872,3.334,6.063,,6.294131,-1.7311680000000000,3.2273990000000000,103.120544,16.201571000000000,6.840898000000000,-1278.7968000000000,-502.997728,330.05868800000000,-1278.0,-487.5,355.5,-78.928648,91.301864,128.246568,-0.17341100000000000,0.640695,0.302805,0.68392,260547.095,260549.304
1742703965.759580,,0,Tag,4,5.968,3.823,3.366,6.042,,6.720952,-1.1245830000000000,3.418366,103.702632,16.920570000000000,2.54013,-1277.3263360000000,-502.03936,342.11731200000000,-1276.5,-486.0,367.5,-79.064488,91.01514400000000,130.627976,-0.18681200000000000,0.635089,0.313594,0.68075,260567.095,260569.331
1742703965.778950,,0,Tag,4,5.942,3.771,3.432,6.054,,6.925736,0.471611,3.260059,104.45681600000000,19.22964,2.214633,-1281.842048,-491.820256,348.572608,-1281.0,-475.5,373.5,-79.168848,90.67459200000000,133.083728,-0.20010900000000000,0.629107,0.324544,0.677384,260587.095,260589.332
1742703965.799370,,0,Tag,4,5.806,3.719,3.412,6.146,,6.654862,0.454611,3.155411,102.54764,20.136072,4.8508060000000000,-1281.85728,-486.09651200000000,354.836352,-1281.0,-469.5,379.5,-79.318024,90.115416,135.738768,-0.213592,0.6229,0.334935,0.673937,260607.095,260609.293
1742703965.819810,,0,Tag,4,5.842,3.689,3.448,6.166,,7.425438,1.00433,3.239251,102.14614400000000,21.726944,5.548235,-1281.876096,-483.43712,362.46352000000000,-1281.0,-466.5,387.0,-79.487512,89.30042400000000,138.6344,-0.22716300000000000,0.616385,0.344898,0.670455,260627.095,260629.297
1742703965.840220,,0,Tag,4,5.77,3.574,3.583,6.13,,7.743743000000000,0.925879,3.3149660000000000,100.463456,22.94466,5.915574000000000,-1290.9131520000000,-478.11846400000000,377.695872,-1290.0,-460.5,402.0,-79.67520000000000,88.29237600000000,141.696496,-0.240722,0.609695,0.35440100000000000,0.666875,260647.095,260649.298
1742703965.858540,,0,Tag,4,5.739,3.56,3.537,6.144,,8.022219,1.330474,3.3204370000000000,99.339648,24.195464000000000,6.888702000000000,-1286.41344,-476.62,377.774368,-1285.5,-459.0,402.0,-79.85815200000000,87.059376,144.961792,-0.25418800000000000,0.602744,0.363568,0.663253,260667.095,260669.257
1742703965.878950,,0,Tag,4,5.739,3.541,3.619,6.245,,7.637488000000000,1.259622,3.30379,96.78048800000000,23.922574000000000,10.182202,-1290.943744,-468.169376,390.155872,-1290.0,-450.0,414.0,-80.078536,85.655384,148.35688,-0.267666,0.5958290000000000,0.372102,0.659455,260687.095,260689.283
1742703965.899400,,0,Tag,4,5.641,3.451,3.717,6.27,,8.866467,0.98766,3.443869,96.30942400000000,24.527478,9.321021,-1298.441088,-459.111136,389.044128,-1297.5,-441.0,412.5,-80.295704,83.937024,152.03780800000000,-0.281084,0.588684,0.380195,0.655662,260707.095,260709.249
1742703965.919810,,0,Tag,4,5.629,3.432,3.621,6.272,,8.640969,1.306789,3.510716,95.110968,22.806252,9.034818,-1298.4488960000000,-454.750816,392.24355200000000,-1297.5,-436.5,415.5,-80.50716,82.35116,155.569696,-0.294243,0.5816710000000000,0.38817800000000000,0.651457,260727.095,260729.248
1742703965.939200,,0,Tag,4,5.645,3.396,3.745,6.317,,9.792323,1.9295260000000000,4.221105,94.390408,21.967282000000000,6.458271,-1298.471296,-450.660512,401.436672,-1297.5,-432.0,424.5,-80.687496,80.48300000000000,159.358128,-0.307207,0.574376,0.395871,0.6473020000000000,260747.095,260749.26200000000
1742703965.959660,,0,Tag,3,5.6,3.322,3.834,,,10.033011,1.864109,4.269521,92.699184,13.066311000000000,3.344515,-1295.478784,-450.79552000000000,404.440864,-1294.5,-432.0,427.5,-80.804992,79.16596800000000,162.56332800000000,-0.31926700000000000,0.567311,0.403906,0.642717,260767.095,260769.222
1742703965.980120,,0,Tag,4,5.597,3.301,3.858,6.317,,9.164910000000000,2.431587,3.817726,90.04727200000000,13.971345,4.234283,-1298.4933120000000,-451.065568,410.427264,-1297.5,-432.0,433.5,-80.91866400000000,78.41067200000000,165.163296,-0.330619,0.560717,0.411997,0.637608,260787.095,260789.219
1742703965.998410,,0,Tag,4,5.468,3.283,3.94,6.34,,9.043373000000000,2.877906,3.487414,86.482456,12.742063,5.727287,-1302.994688,-437.57948800000000,411.02384,-1302.0,-418.5,433.5,-81.087672,77.48776,167.86208,-0.341871,0.554431,0.41931400000000000,0.6323800000000000,260807.095,260809.253
1742703966.018830,,0,Tag,4,5.507,3.278,4.02,6.41,,9.685242000000000,2.700621,3.018129,84.719072,11.412682,4.23271,-1307.520512,-436.553632,421.569344,-1306.5,-417.0,444.0,-81.244584,76.73305600000000,170.333296,-0.35253200000000000,0.5483550000000000,0.426427,0.627046,260827.095,260829.22100000000
1742703966.039300,,0,Tag,4,5.447,3.235,3.996,6.43,,9.361403,2.527199,2.053365,80.60251200000000,14.388451,4.620265,-1303.036288,-427.83296000000000,427.97916800000000,-1302.0,-408.0,450.0,-81.41764000000000,76.000064,172.721712,-0.362819,0.542538,0.433129,0.621621,260847.095,260849.22100000000
1742703966.059870,,0,Tag,4,5.401,3.235,4.009,6.518,,9.708703,1.801931,2.08472,79.08502400000000,14.580751,3.4916770000000000,-1309.04704,-429.533952,432.392256,-1308.0,-409.5,454.5,-81.531416,74.918624,175.41496000000000,-0.372766,0.536327,0.439538,0.616606,260867.095,260869.253
1742703966.079290,,0,Tag,4,5.408,3.2,4.12,6.541,,9.706829000000000,1.608644,1.803237,78.182368,13.07513,3.1837110000000000,-1312.06208,-425.30864000000000,438.581152,-1311.0,-405.0,460.5,-81.611944,74.061736,177.859312,-0.38221,0.5301200000000000,0.44603,0.611509,260887.095,260889.218
1742703966.099760,,0,Tag,4,5.303,3.136,4.089,6.428,,10.632779,1.886993,1.944423,77.258744,14.376003000000000,2.7577980000000000,-1307.5848960000000,-419.719904,447.8528,-1306.5,-399.0,469.5,-81.67489600000000,73.18252800000000,-179.691152,0.391436,-0.523816,-0.452405,-0.606401,260907.095,260909.217
1742703966.119170,,0,Tag,4,5.365,3.104,4.145,6.487,,10.761174000000000,1.03322,2.022271,76.358808,14.264041000000000,0.777331,-1312.08064,-424.147744,446.14080000000000,-1311.0,-403.5,468.0,-81.698072,72.242064,-177.20654400000000,0.400347,-0.517312,-0.458659,-0.601448,260927.095,260929.252
1742703966.139610,,0,Tag,4,5.26,3.087,4.258,6.505,,11.197862000000000,1.1778550000000000,2.398338,74.48778400000000,14.068250000000000,1.994967,-1312.10112,-406.503872,454.443072,-1311.0,-385.5,475.5,-81.694992,71.23539200000000,-174.67248000000000,0.40906700000000000,-0.51064,-0.46477200000000000,-0.596569,260947.095,260949.215
1742703966.159020,,0,Tag,4,5.277,3.078,4.237,6.475,,10.50581,1.0388,2.68066,72.63448,12.033811,2.556421,-1313.603456,-417.060544,455.465312,-1312.5,-396.0,477.0,-81.71507200000000,70.305872,-172.26192,0.41752,-0.504266,-0.470568,-0.591571,260967.095,260969.22
1742703966.179470,,0,Tag,4,5.181,3.06,4.275,6.453,,10.779484,1.000673,3.290863,70.72944800000000,12.673687,2.02932,-1318.108288,-406.63888,457.42524800000000,-1317.0,-385.5,478.5,-81.714568,69.26869600000000,-169.77944,0.42574600000000000,-0.497826,-0.47609200000000000,-0.586724,260987.095,260989.253
1742703966.199940,,0,Tag,4,5.183,3.113,4.248,6.462,,10.923344,0.5678720000000000,3.5428440000000000,69.383912,10.442479000000000,2.003511,-1312.127744,-397.98576000000000,465.337152,-1311.0,-376.5,486.0,-81.697384,68.268288,-167.372368,0.433647,-0.491421,-0.48142600000000000,-0.5819640000000000,261007.095,261009.218
1742703966.219320,,0,Tag,4,5.195,3.078,4.309,6.523,,10.726147,0.77628,3.0654910000000000,67.983448,7.894302,2.9155540000000000,-1318.127744,-396.487264,465.38998400000000,-1317.0,-375.0,486.0,-81.70897600000000,67.587616,-165.312752,0.441197,-0.485386,-0.48673300000000000,-0.5769180000000000,261027.095,261029.228
1742703966.238720,,0,Tag,4,5.167,3.028,4.413,6.568,,10.488134000000000,0.9220620000000000,2.391485,66.775764,6.7591850000000000,2.082648,-1318.146176,-396.82483200000000,472.882144,-1317.0,-375.0,493.5,-81.74308000000000,67.228584,-163.603296,0.448354,-0.47967900000000000,-0.49205100000000000,-0.571639,261047.095,261049.263
1742703966.259160,,0,Tag,4,5.128,3.007,4.394,6.633,,10.260047,0.6984320000000000,1.741215,64.743524,8.491066,1.800419,-1315.136,-387.631552,468.799264,-1314.0,-366.0,489.0,-81.76894400000000,67.028648,-162.08364800000000,0.45514300000000000,-0.47406,-0.497322,-0.566375,261067.095,261069.23500000000
1742703966.279620,,0,Tag,4,5.057,3.048,4.447,6.577,,10.779516,0.6636800000000000,1.6954590000000000,64.110336,8.951684,2.380366,-1313.669888,-382.24537600000000,482.55888,-1312.5,-360.0,502.5,-81.78329600000000,66.591852,-160.353104,0.461902,-0.46834500000000000,-0.502258,-0.56128,261087.095,261089.239
1742703966.300050,,0,Tag,4,5.076,3.101,4.482,6.608,,10.987234000000000,0.6633750000000000,1.1965330000000000,62.988044000000000,7.449114,1.758205,-1313.674112,-377.817504,484.25984,-1312.5,-355.5,504.0,-81.808784,66.35953600000000,-158.841408,0.46839700000000000,-0.46278200000000000,-0.507213,-0.55603,261107.095,261109.272
1742703966.319530,,0,Tag,4,4.999,3.076,4.489,6.572,,10.297925,0.400769,1.0602370000000000,61.85218,10.154085,1.9629410000000000,-1318.19968,-376.791648,494.805344,-1317.0,-354.0,514.5,-81.825464,66.160568,-157.387152,0.474666,-0.457234,-0.512057,-0.550841,261127.095,261129.24000000000
1742703966.338910,,0,Tag,4,4.959,3.03,4.468,6.509,,10.799316,0.5092020000000000,1.677625,61.152864000000000,10.353091,1.528114,-1321.181056,-379.45097600000000,487.170816,-1320.0,-357.0,507.0,-81.814696,65.542868,-155.529696,0.481078,-0.451408,-0.516485,-0.545926,261147.095,261149.265
1742703966.359450,,0,Tag,4,4.937,3.03,4.556,6.52,,10.835251,0.131731,1.8571100000000000,60.610876,9.517697,1.185494,-1324.2037760000000,-372.363808,496.49161600000000,-1323.0,-349.5,516.0,-81.789816,65.06598800000000,-153.82643200000000,0.48723,-0.445561,-0.520934,-0.541024,261167.095,261169.30000000000
1742703966.378880,,0,Tag,4,4.865,3.046,4.571,6.599,,10.754522,0.399562,2.093252,59.254416,10.206927,1.937557,-1315.204736,-364.87152,496.8512,-1314.0,-342.0,516.0,-81.767704,64.469656,-152.022272,0.493355,-0.439743,-0.525138,-0.536149,261187.095,261189.266
1742703966.399350,,0,Tag,4,4.944,3.085,4.65,6.565,,10.4238,0.41873,2.36145,57.993000000000000,9.888783,1.197684,-1325.719424,-363.64313600000000,502.88672000000000,-1324.5,-340.5,522.0,-81.73723200000000,63.776524000000000,-150.148144,0.499376,-0.433936,-0.5291,-0.531389,261207.095,261209.268
1742703966.419800,,0,Tag,4,4.839,3.023,4.647,6.579,,10.512692,-0.18731200000000000,2.5364140000000000,57.010464,8.629212000000000,1.600385,-1318.243328,-349.06368,512.5708160000000,-1317.0,-325.5,531.0,-81.690128,63.191936,-148.408432,0.505112,-0.428143,-0.5330120000000000,-0.526737,261227.095,261229.302
1742703966.440290,,0,Tag,4,4.824,3.051,4.607,6.527,,10.861165,-0.193542,2.3671030000000000,56.276164000000000,7.5293530000000000,2.327558,-1324.231936,-350.359584,507.99328000000000,-1323.0,-327.0,526.5,-81.660232,62.723332,-146.801248,0.5106690000000000,-0.422531,-0.536872,-0.521969,261247.095,261249.268
1742703966.458680,,0,Tag,4,4.851,3.014,4.681,6.525,,10.844078,-0.27095000000000000,1.818714,55.66128,6.718087,1.8341890000000000,-1321.228928,-345.796736,506.70473600000000,-1320.0,-322.5,525.0,-81.64716,62.464392,-145.416224,0.515975,-0.41709600000000000,-0.540787,-0.517057,261267.095,261269.272
1742703966.479180,,0,Tag,4,4.698,3.078,4.686,6.532,,10.61453,-0.3117,1.466384,55.234432,7.305217,1.9622,-1319.732096,-350.359584,508.004288,-1318.5,-327.0,526.5,-81.631072,62.331836000000000,-144.167584,0.5210740000000000,-0.41168100000000000,-0.544725,-0.512126,261287.095,261289.304
1742703966.499690,,0,Tag,4,4.731,3.083,4.76,6.541,,10.782524000000000,-0.346645,1.4066650000000000,54.573796000000000,7.439453000000000,2.17649,-1328.755584,-335.780128,517.647936,-1327.5,-312.0,535.5,-81.620696,62.142904000000000,-142.873856,0.5261360000000000,-0.406307,-0.548513,-0.5071750000000000,261307.095,261309.275
1742703966.519270,,0,Tag,4,4.755,3.097,4.714,6.593,,10.872496,-0.23083100000000000,1.409192,54.296464,7.917302000000000,1.807496,-1327.270272,-336.05017600000000,523.6453760000000,-1326.0,-312.0,541.5,-81.609096,61.94294,-141.576976,0.531125,-0.400928,-0.5522120000000000,-0.502219,261327.095,261329.27300000000
1742703966.539710,,0,Tag,4,4.714,3.046,4.755,6.599,,10.661195,-0.382023,1.578171,54.116572,8.142805,1.42857,-1324.271616,-324.062528,524.1928000000000,-1323.0,-300.0,541.5,-81.57816,61.69902,-140.240192,0.536059,-0.395405,-0.555819,-0.497351,261347.095,261349.306
1742703966.560140,,0,Tag,4,4.679,3.028,4.872,6.543,,10.408252,-0.211299,1.7287380000000000,54.072588000000000,8.297412,1.20577,-1327.264,-325.425952,521.1210240000000,-1326.0,-301.5,538.5,-81.537784,61.430096,-138.881104,0.540948,-0.3898,-0.559346,-0.492506,261367.095,261369.275
1742703966.579510,,0,Tag,4,4.688,3.09,4.786,6.536,,10.162709,-0.278143,1.912335,53.351956000000000,8.208584,1.322666,-1330.264448,-320.930592,521.3162240000000,-1329.0,-297.0,538.5,-81.49840000000000,61.114048,-137.48432,0.5457990000000000,-0.38421,-0.562738,-0.48765700000000000,261387.095,261389.276
1742703966.598950,,0,Tag,4,4.64,3.11,4.82,6.527,,10.174038,-0.38673200000000000,2.032173,52.83844,8.025044,1.3766080000000000,-1324.2912,-312.412448,532.22496,-1323.0,-288.0,549.0,-81.44925600000000,60.792612,-136.094864,0.550549,-0.378592,-0.5660300000000000,-0.482878,261407.095,261409.316
1742703966.619380,,0,Tag,4,4.645,3.071,4.872,6.491,,10.592373,-0.545226,1.9850330000000000,52.047076,7.2738060000000000,1.825453,-1328.7985920000000,-312.547488,535.21088,-1327.5,-288.0,552.0,-81.411608,60.502152000000000,-134.74884800000000,0.555194,-0.373085,-0.569246,-0.47804200000000000,261427.095,261429.28100000000
1742703966.639830,,0,Tag,4,4.604,3.053,4.906,6.536,,10.690995,0.15187600000000000,1.3196410000000000,52.835044000000000,7.4325970000000000,1.634182,-1330.3064320000000,-308.187136,538.4065920000000,-1329.0,-283.5,555.0,-81.38632,60.347004,-133.54878400000000,0.5596440000000000,-0.36770000000000000,-0.572491,-0.47312500000000000,261447.095,261449.324
1742703966.660250,,0,Tag,4,4.523,3.101,4.884,6.525,,10.273938,-0.900787,1.242311,50.535424,5.7773580000000000,2.558116,-1328.809984,-309.75312000000000,539.841216,-1327.5,-285.0,556.5,-81.427168,60.159656,-132.352384,0.564004,-0.36288700000000000,-0.575522,-0.46795900000000000,261467.095,261469.324
1742703966.678580,,0,Tag,4,4.533,3.136,4.901,6.525,,10.389716,0.006248,1.2229840000000000,48.376,5.434877,4.483674,-1330.31488,-296.33456,541.943552,-1329.0,-271.5,558.0,-81.477368,59.912992000000000,-131.108736,0.568329,-0.358164,-0.5784200000000000,-0.462762,261487.095,261489.29
1742703966.699020,,0,Tag,4,4.731,3.154,4.942,6.52,,10.280825,0.123458,1.224942,47.336616,4.80126,4.055814,-1333.319424,-288.909792,543.77216,-1332.0,-264.0,559.5,-81.551576,59.650212000000000,-129.886416,0.572489,-0.35376200000000000,-0.581149,-0.457572,261507.095,261509.332
1742703966.719440,,0,Tag,4,4.518,3.092,4.87,6.538,,10.117143000000000,1.340226,1.253015,45.527676,4.764053,3.483821,-1333.32352,-285.980416,545.405632,-1332.0,-261.0,561.0,-81.627736,59.341208000000000,-128.637296,0.576565,-0.34945,-0.583747,-0.452433,261527.095,261529.335
1742703966.739840,,0,Tag,4,4.415,3.122,4.896,6.527,,9.818904,1.065296,1.371532,44.420436000000000,5.031959,1.81042,-1333.324288,-278.48812800000000,545.7432320000000,-1332.0,-253.5,561.0,-81.6806,59.083508000000000,-127.47708,0.5803810000000000,-0.345166,-0.5862500000000000,-0.44758,261547.095,261549.304
1742703966.759240,,0,Tag,4,4.499,3.127,4.949,6.527,,9.721469000000000,1.0341720000000000,1.186486,43.641896000000000,4.411758,1.1798150000000000,-1330.3203840000000,-279.91907200000000,544.184576,-1329.0,-255.0,559.5,-81.706272,58.925696000000000,-126.43306400000000,0.5839830000000000,-0.340779,-0.5887630000000000,-0.44293300000000000,261567.095,261569.339
1742703966.779670,,0,Tag,4,4.409,3.136,5.037,6.509,,9.872534,0.721843,1.1521790000000000,42.562524000000000,4.765116,1.035139,-1333.320704,-278.420608,544.244736,-1332.0,-253.5,559.5,-81.723368,58.850984,-125.493448,0.587386,-0.336432,-0.591254,-0.438415,261587.095,261589.343
1742703966.799020,,0,Tag,4,4.443,3.161,5.081,6.473,,10.017298,0.38676,0.9471990000000000,42.038452,4.467047,0.298905,-1337.82528,-269.497408,546.1372800000000,-1336.5,-244.5,561.0,-81.72412,58.855592000000000,-124.65020800000000,0.59061,-0.332053,-0.5937320000000000,-0.434052,261607.095,261609.314
1742703966.819430,,0,Tag,4,4.369,3.147,5.026,6.55,,9.881227000000000,-0.17257,0.858252,41.274332,4.471116000000000,0.046071,-1330.339968,-269.767456,552.149312,-1329.0,-244.5,567.0,-81.708528,58.985688000000000,-123.94548000000000,0.5936320000000000,-0.32762200000000000,-0.596247,-0.429828,261627.095,261629.351
1742703966.838830,,0,Tag,4,4.394,3.239,4.982,6.482,,9.734295,-0.5434290000000000,0.854613,40.599896,4.734965,0.307868,-1337.8330880000000,-265.137088,549.33664,-1336.5,-240.0,564.0,-81.684544,59.164844000000000,-123.30224,0.59653,-0.323185,-0.598737,-0.425695,261647.095,261649.351
1742703966.859250,,0,Tag,4,4.367,3.184,5.014,6.432,,9.523993000000000,-0.918358,1.024554,40.076364,5.718453000000000,0.39533800000000000,-1337.834496,-253.14944,549.8767360000000,-1336.5,-228.0,564.0,-81.64369600000000,59.27464,-122.603088,0.599402,-0.318691,-0.60109,-0.421713,261667.095,261669.321
1742703966.879710,,0,Tag,4,4.348,3.186,5.026,6.459,,9.637174,-1.292756,1.333025,39.620252,5.982593,0.5241360000000000,-1336.3383040000000,-251.71851200000000,551.446336,-1335.0,-226.5,565.5,-81.578632,59.251496000000000,-121.777048,0.6023340000000000,-0.314055,-0.603266,-0.41788900000000000,261687.095,261689.356
1742703966.900140,,0,Tag,4,4.311,3.209,5.054,6.554,,9.682052000000000,-1.4615590000000000,1.554268,39.940748,5.740391,0.853606,-1334.849152,-253.419488,555.8778240000000,-1333.5,-228.0,570.0,-81.50916,59.208248,-120.93428,0.605247,-0.309395,-0.6053770000000000,-0.414087,261707.095,261709.352
1742703966.918550,,0,Tag,4,4.302,3.212,5.1,6.617,,9.550198,-1.561084,1.5960410000000000,40.314448,5.329769,1.665994,-1336.3310080000000,-250.08504,548.516992,-1335.0,-225.0,562.5,-81.45036000000000,59.169296000000000,-120.08961600000000,0.608158,-0.304755,-0.607476,-0.410169,261727.095,261729.325
1742703966.939020,,0,Tag,4,4.281,3.278,5.081,6.448,,9.504148000000000,-1.464351,1.477477,40.681212000000000,5.222734,1.257968,-1342.342656,-244.29374400000000,553.267648,-1341.0,-219.0,567.0,-81.395752,59.173432,-119.277592,0.611043,-0.300072,-0.609609,-0.406151,261747.095,261749.35700000000
1742703966.959550,,0,Tag,4,4.206,3.262,5.09,6.534,,9.480801,-1.588206,1.3465450000000000,41.332172,5.078502000000000,1.5715680000000000,-1345.3281280000000,-242.525232,547.334016,-1344.0,-217.5,561.0,-81.34676,59.221528,-118.500248,0.6138940000000000,-0.29536,-0.611773,-0.40203,261767.095,261769.326
1742703966.979010,,0,Tag,4,4.246,3.2,5.131,6.469,,9.536934000000000,-1.585631,1.285823,41.790012,5.345597,1.478558,-1342.332416,-236.59896000000000,549.109888,-1341.0,-211.5,562.5,-81.29767200000000,59.302976000000000,-117.74412800000000,0.6167280000000000,-0.29056500000000000,-0.613964,-0.397825,261787.095,261789.323
1742703966.999480,,0,Tag,4,4.229,3.288,5.136,6.471,,9.509106,-1.585059,1.272764,42.805952,5.8632350000000000,0.8836650000000000,-1337.840128,-235.23552000000000,552.1852800000000,-1336.5,-210.0,565.5,-81.24036800000000,59.381884,-116.969928,0.619587,-0.285619,-0.616149,-0.39356400000000000,261807.095,261809.358
1742703967.019930,,0,Tag,4,4.277,3.304,5.128,6.471,,9.491722,-1.6689320000000000,1.400218,43.341504,6.302723000000000,0.819125,-1342.322304,-228.904144,544.952128,-1341.0,-204.0,558.0,-81.169432,59.440344000000000,-116.15993600000000,0.6224840000000000,-0.280487,-0.618305,-0.38928000000000000,261827.095,261829.325
1742703967.040380,,0,Tag,4,4.181,3.299,5.061,6.469,,9.658049,-1.6996910000000000,1.576165,44.063012,6.674482000000000,0.731397,-1342.33728,-226.17728,551.0808960000000,-1341.0,-201.0,564.0,-81.092648,59.448368000000000,-115.286408,0.6254420000000000,-0.275233,-0.620398,-0.38493500000000000,261847.095,261849.32700000000
1742703967.059750,,0,Tag,4,4.242,3.304,5.085,6.453,,9.710021,-1.911203,1.798655,44.748208,6.712662,0.6439970000000000,-1342.341888,-217.25408,552.984384,-1341.0,-192.0,565.5,-81.002832,59.44314,-114.386304,0.628425,-0.269808,-0.622455,-0.38057000000000000,261867.095,261869.37
1742703967.079130,,0,Tag,4,4.187,3.398,5.093,6.412,,9.610371000000000,-1.8464810000000000,1.81547,45.482652000000000,6.061273,0.747006,-1345.309568,-210.652672,539.7611520000000,-1344.0,-186.0,552.0,-80.91264800000000,59.488048,-113.52162400000000,0.631377,-0.26428200000000000,-0.624547,-0.37610700000000000,261887.095,261889.332
1742703967.099560,,0,Tag,4,4.229,3.368,5.121,6.356,,9.461218000000000,-1.702648,1.7001930000000000,46.003836,5.791612,1.65377,-1345.331968,-208.060816,548.886848,-1344.0,-183.0,561.0,-80.84504800000000,59.564132,-112.676344,0.634305,-0.25881700000000000,-0.6266690000000000,-0.371423,261907.095,261909.335
1742703967.120010,,0,Tag,4,4.185,3.391,5.126,6.381,,9.50606,-1.5387010000000000,1.588925,46.228108,5.890461,1.813642,-1349.835904,-203.63296,550.576704,-1348.5,-178.5,562.5,-80.792608,59.635196,-111.81780000000000,0.637228,-0.253387,-0.6287700000000000,-0.366581,261927.095,261929.362
1742703967.139370,,0,Tag,4,4.189,3.356,5.155,6.317,,9.615558,-1.500246,1.5487820000000000,46.548256000000000,5.962620000000000,1.733279,-1339.31776,-203.29540800000000,543.110336,-1338.0,-178.5,555.0,-80.745048,59.704988,-110.95384,0.6401280000000000,-0.247947,-0.630838,-0.36166300000000000,261947.095,261949.337
1742703967.158750,,0,Tag,4,4.108,3.393,5.162,6.229,,9.577465,-1.225903,1.5305660000000000,46.89808,5.795314000000000,1.868674,-1342.325504,-198.935056,546.302336,-1341.0,-174.0,558.0,-80.703312,59.783920000000000,-110.092024,0.6430010000000000,-0.24248900000000000,-0.6328890000000000,-0.35665000000000000,261967.095,261969.334
1742703967.179180,,0,Tag,4,4.087,3.373,5.191,6.34,,9.558485,-0.144068,1.716273,46.82752,5.2606,5.101119,-1348.322688,-191.375296,545.1267840000000,-1347.0,-166.5,556.5,-80.68808,59.768572,-109.129656,0.645944,-0.23715500000000000,-0.63484,-0.351412,261987.095,261989.373
1742703967.199630,,0,Tag,4,4.047,3.458,5.171,6.272,,9.465217000000000,-1.605604,1.811772,48.591836,6.316842000000000,0.522772,-1345.3344,-185.584016,549.899456,-1344.0,-160.5,561.0,-80.633792,59.849168,-108.263432,0.648755,-0.23155000000000000,-0.636799,-0.346392,262007.095,262009.337
1742703967.220040,,0,Tag,4,3.98,3.537,5.198,6.236,,9.604621,-0.372849,1.5219510000000000,46.60988,5.429809,3.085431,-1343.827456,-182.45208,547.04128,-1342.5,-157.5,558.0,-80.60663200000000,59.854136,-107.298784,0.651664,-0.225981,-0.638709,-0.34105200000000000,262027.095,262029.335
1742703967.239430,,0,Tag,4,4.007,3.534,5.284,6.259,,9.479721,-0.870351,1.427377,48.165368,6.190384,2.1855190000000000,-1348.317568,-170.26192,543.075072,-1347.0,-145.5,553.5,-80.583056,59.92668,-106.422056,0.6544,-0.220525,-0.6406030000000000,-0.33579,262047.095,262049.36800000000
1742703967.258770,,0,Tag,4,3.9,3.442,5.248,6.184,,9.695697,-0.916763,1.347016,47.092964000000000,6.222259000000000,1.816408,-1352.81728,-173.258816,542.929024,-1351.5,-148.5,553.5,-80.561104,59.963436000000000,-105.499736,0.657157,-0.21501300000000000,-0.642436,-0.330435,262067.095,262069.333
1742703967.279230,,0,Tag,4,3.924,3.508,5.229,6.218,,9.70389,-0.349767,1.339628,47.407768,6.211269,2.046109,-1345.333888,-157.045888,549.683712,-1344.0,-132.0,559.5,-80.541056,60.004572000000000,-104.58671200000000,0.659852,-0.209525,-0.64422,-0.325076,262087.095,262089.328
1742703967.299650,,0,Tag,4,3.867,3.555,5.238,6.234,,9.58713,-0.690232,1.234279,46.843928,5.870501,2.223761,-1348.3265280000000,-155.41241600000000,546.7470080000000,-1347.0,-130.5,556.5,-80.52604,60.049156000000000,-103.6854,0.662474,-0.204099,-0.645952,-0.31971300000000000,262107.095,262109.36800000000
1742703967.319010,,0,Tag,4,3.841,3.541,5.265,6.232,,9.581626,-0.078246,1.1993050000000000,46.033360000000000,5.989937000000000,2.9299870000000000,-1348.3192320000000,-155.277392,543.750144,-1347.0,-130.5,553.5,-80.53336,60.0231,-102.720912,0.6650930000000000,-0.198852,-0.647586,-0.31423,262127.095,262129.331
1742703967.339400,,0,Tag,4,3.846,3.623,5.25,6.133,,9.698241,0.137823,1.301529,45.03136,5.985342,3.207748,-1351.3135360000000,-141.656288,541.3536,-1350.0,-117.0,550.5,-80.55696000000000,59.923212,-101.704112,0.667674,-0.193828,-0.64909,-0.308743,262147.09500000000,262149.335
1742703967.359840,,0,Tag,4,3.785,3.651,5.32,6.133,,9.841376,0.042258,1.4460980000000000,43.932716,5.773227000000000,2.997641,-1355.80992,-138.591856,539.9791360000000,-1354.5,-114.0,549.0,-80.587792,59.752108,-100.637928,0.670219,-0.188974,-0.6504600000000000,-0.30330800000000000,262167.09500000000,262169.37
1742703967.380260,,0,Tag,4,3.825,3.651,5.337,6.083,,9.946164,0.184889,1.552228,43.527624000000000,5.833326,1.892563,-1363.310592,-132.59805600000000,540.230784,-1362.0,-108.0,549.0,-80.60072800000000,59.598488000000000,-99.60353600000000,0.672675,-0.184077,-0.6517610000000000,-0.298044,262187.09500000000,262189.33400000000
1742703967.398560,,0,Tag,4,3.776,3.656,5.313,6.124,,9.925560000000000,0.12659100000000000,1.359713,42.790768,5.703148,1.708319,-1358.806656,-135.52744000000000,538.608384,-1357.5,-111.0,547.5,-80.604512,59.497868,-98.63392000000000,0.675013,-0.179172,-0.653044,-0.292892,262207.09500000000,262209.337
1742703967.418950,,0,Tag,4,3.827,3.626,5.274,6.124,,10.156678,0.026813,1.1523680000000000,41.958828,5.433145,1.482778,-1358.803584,-129.46611200000000,537.380032,-1357.5,-105.0,546.0,-80.608248,59.445156,-97.72899200000000,0.677222,-0.174344,-0.6543130000000000,-0.287832,262227.09500000000,262229.371
1742703967.439400,,0,Tag,4,3.698,3.701,5.298,6.099,,10.322635,-0.033623,1.014835,41.367252,5.095314,1.5900000000000000,-1360.2924800000000,-129.26358400000000,532.881056,-1359.0,-105.0,541.5,-80.61787200000000,59.45216,-96.897048,0.6792970000000000,-0.16960700000000000,-0.6555950000000000,-0.282811,262247.09500000000,262249.33400000000
1742703967.459860,,0,Tag,4,3.78,3.738,5.255,6.103,,10.24208,-0.107211,0.985564,40.79044,4.772767,0.8525650000000000,-1355.814912,-126.671736,542.017664,-1354.5,-102.0,550.5,-80.624584,59.519576,-96.138104,0.6812470000000000,-0.164902,-0.65688,-0.27788000000000000,262267.09500000000,262269.336
1742703967.479270,,0,Tag,4,3.719,3.738,5.298,6.056,,10.260933,-0.206086,1.041466,39.892448,4.36716,1.1073040000000000,-1354.3048960000000,-118.97694400000000,537.863616,-1353.0,-94.5,546.0,-80.624312,59.640948000000000,-95.4474,0.68308,-0.160215,-0.6581510000000000,-0.273074,262287.09500000000,262289.373
1742703967.499700,,0,Tag,4,3.762,3.809,5.313,6.033,,10.302479,-0.13788800000000000,1.143526,38.939224000000000,3.7383860000000000,1.719032,-1355.7875200000000,-108.15020800000000,530.84032,-1354.5,-84.0,538.5,-80.638424,59.747224000000000,-94.761792,0.6848340000000000,-0.155726,-0.659373,-0.26828800000000000,262307.09500000000,262309.344
1742703967.519270,,0,Tag,4,3.738,3.816,5.32,6.085,,10.272217,-0.08635,1.2324660000000000,37.95476,3.3192750000000000,1.698154,-1363.2977920000000,-114.34656,535.0471680000000,-1362.0,-90.0,543.0,-80.664808,59.840072,-94.082376,0.686511,-0.151419,-0.660548,-0.263534,262327.09500000000,262329.34500000000
1742703967.538670,,0,Tag,4,3.682,3.759,5.317,6.094,,10.283059,-0.143987,1.196864,36.887072000000000,4.095292,0.9156450000000000,-1364.79424,-112.780592,533.612608,-1363.5,-88.5,541.5,-80.679304,59.914740000000000,-93.40584800000000,0.688137,-0.14715700000000000,-0.6616260000000000,-0.25896000000000000,262347.09500000000,262349.377
1742703967.559100,,0,Tag,4,3.696,3.799,5.315,6.004,,10.291242000000000,-0.23260400000000000,1.060597,35.960196000000000,4.297815,1.061261,-1361.780608,-103.519824,528.031296,-1360.5,-79.5,535.5,-80.680408,59.965292,-92.724184,0.689728,-0.142922,-0.662605,-0.254564,262367.09500000000,262369.344
1742703967.579580,,0,Tag,4,3.689,3.82,5.334,6.015,,10.592615,-0.195509,0.9688290000000000,35.191236000000000,4.795171,0.7264070000000000,-1364.795392,-102.291416,534.085216,-1363.5,-78.0,541.5,-80.684432,59.965620000000000,-92.008744,0.6913000000000000,-0.13880400000000000,-0.663493,-0.250227,262387.09500000000,262389.349
1742703967.600020,,0,Tag,4,3.642,3.858,5.32,6.009,,10.700356,-0.131832,0.838831,34.452192,3.5166550000000000,1.573067,-1369.2704000000000,-95.82501600000000,523.855232,-1368.0,-72.0,531.0,-80.694992,60.019628,-91.360624,0.692757,-0.134787,-0.664404,-0.245939,262407.09500000000,262409.385
1742703967.619500,,0,Tag,4,3.67,3.832,5.325,5.973,,10.622019,0.178486,0.523613,33.94084,3.8568,0.859421,-1369.266688,-95.75749600000000,522.3568,-1368.0,-72.0,529.5,-80.726488,60.150624,-90.803816,0.69406,-0.130956,-0.665392,-0.24162600000000000,262427.09500000000,262429.352
1742703967.639950,,0,Tag,4,3.635,3.863,5.363,5.949,,10.262754,-0.07078,0.783845,32.380126,5.00113,1.3580730000000000,-1376.788992,-93.165672,531.4640000000000,-1375.5,-69.0,538.5,-80.746704,60.156792000000000,-90.14599200000000,0.6954200000000000,-0.127219,-0.666187,-0.237484,262447.09500000000,262449.356
1742703967.659420,,0,Tag,4,3.656,3.926,5.368,5.923,,10.097766,-0.147939,1.044143,31.770644000000000,6.2991840000000000,0.5915890000000000,-1366.2754560000000,-82.406448,525.968576,-1365.0,-58.5,532.5,-80.741016,59.981772,-89.323656,0.696925,-0.12346500000000000,-0.666715,-0.233539,262467.09500000000,262469.369
1742703967.678830,,0,Tag,4,3.616,3.893,5.375,5.973,,10.26166,-0.36647400000000000,1.201134,31.243310000000000,5.627694,0.9566440000000000,-1372.267136,-91.26214400000000,522.552,-1371.0,-67.5,529.5,-80.720384,59.746828,-88.45307200000000,0.69846,-0.11970400000000000,-0.6671200000000000,-0.22972600000000000,262487.09500000000,262489.338
1742703967.699270,,0,Tag,4,3.633,3.884,5.346,5.992,,9.784698000000000,-0.48328,1.436939,32.226368,-0.804541,-0.161679,-1375.250176,-78.93696,515.592544,-1374.0,-55.5,522.0,-80.708176,59.803708,-87.87799200000000,0.699677,-0.115934,-0.667798,-0.225957,262507.09500000000,262509.371
1742703967.719780,,0,Tag,4,3.602,3.926,5.375,5.913,,10.205343,-0.144836,1.0634650000000000,30.936084000000000,2.860645,-0.693217,-1370.731264,-83.09476,507.90889600000000,-1369.5,-60.0,514.5,-80.709824,60.072884000000000,-87.514496,0.700654,-0.11218000000000000,-0.668689,-0.222156,262527.09500000000,262529.37
1742703967.740200,,0,Tag,4,3.642,3.977,5.339,5.894,,9.239723,-0.62059,0.8646160000000000,30.432148000000000,2.358931,-0.676886,-1367.7472,-72.875632,514.382496,-1366.5,-49.5,520.5,-80.703184,60.355620000000000,-87.18877600000000,0.70156,-0.108508,-0.669532,-0.218551,262547.09500000000,262549.344
1742703967.758600,,0,Tag,4,3.593,3.989,5.38,5.868,,9.139639000000000,-1.035144,0.708514,29.417912000000000,2.955326,-0.32884200000000000,-1370.743424,-72.80812,512.876768,-1369.5,-49.5,519.0,-80.676416,60.659576000000000,-86.89164,0.702438,-0.10474700000000000,-0.670325,-0.215109,262567.09500000000,262569.378
1742703967.779070,,0,Tag,4,3.595,3.989,5.389,5.935,,9.404425,-1.266077,0.751096,29.205646000000000,3.772807,0.591332,-1373.732096,-75.602496,508.239104,-1372.5,-52.5,514.5,-80.648472,60.873332,-86.51514400000000,0.7033660000000000,-0.101065,-0.670999,-0.21171000000000000,262587.09500000000,262589.382
1742703967.799540,,0,Tag,4,3.558,3.989,5.428,5.904,,9.271899,-1.328084,0.721764,29.220048,4.034475,0.707739,-1369.2354560000000,-78.666912,509.61353600000000,-1368.0,-55.5,516.0,-80.625288,61.010332,-86.064584,0.7043390000000000,-0.09744400000000000,-0.671589,-0.208274,262607.09500000000,262609.349
1742703967.818920,,0,Tag,4,3.623,4.024,5.349,5.868,,9.085242,-1.282799,0.795288,29.250866,3.7411720000000000,-0.057878,-1372.2325760000000,-71.107128,508.445312,-1371.0,-48.0,514.5,-80.59427200000000,61.142768,-85.607128,0.705313,-0.093761,-0.6721390000000000,-0.204864,262627.09500000000,262629.388
1742703967.839330,,0,Tag,4,3.522,3.977,5.392,5.88,,9.038609,-1.103701,0.830128,28.743206000000000,3.921455,0.497011,-1366.2405120000000,-66.746788,511.65936,-1365.0,-43.5,517.5,-80.56408000000000,61.283996000000000,-85.161312,0.706255,-0.090094,-0.6726790000000000,-0.201464,262647.09500000000,262649.388
1742703967.859760,,0,Tag,4,3.551,4.001,5.406,5.791,,9.210901,-0.874084,0.929323,28.77983,3.681393,0.72686,-1372.217856,-70.83708,502.45158400000000,-1371.0,-48.0,508.5,-80.546104,61.351732,-84.648296,0.707225,-0.086556,-0.673152,-0.198006,262667.09500000000,262669.36
1742703967.880300,,0,Tag,4,3.52,4.099,5.353,5.832,,9.341459,-0.747296,0.961896,28.430018,3.020667,0.6985430000000000,-1373.717504,-73.833984,502.312864,-1372.5,-51.0,508.5,-80.53972,61.43354,-84.155776,0.708137,-0.083119,-0.673642,-0.19452,262687.09500000000,262689.397
1742703967.898800,,0,Tag,4,3.56,4.072,5.432,5.854,,8.982997,-0.823831,0.526664,27.97271,2.368567,1.825461,-1373.7006080000000,-61.508800000000000,495.3608,-1372.5,-39.0,501.0,-80.556944,61.578044,-83.73544800000000,0.708924,-0.079856,-0.6742240000000000,-0.190972,262707.09500000000,262709.398
1742703967.919270,,0,Tag,4,3.546,4.116,5.406,5.796,,9.496980000000000,-0.21315400000000000,0.631975,25.760684000000000,2.098861,3.081042,-1373.6928,-65.869132,492.161408,-1372.5,-43.5,498.0,-80.6052,61.619932,-83.22502400000000,0.70973,-0.07688000000000000,-0.674755,-0.18728700000000000,262727.09500000000,262729.362
1742703967.939730,,0,Tag,4,3.522,4.032,5.416,5.796,,9.676433,0.7683,0.38928400000000000,25.759176,2.644457,0.9406600000000000,-1370.708736,-54.151556,498.70256,-1369.5,-31.5,504.0,-80.65568000000000,61.708816,-82.785704,0.7104310000000000,-0.074042,-0.675307,-0.18375,262747.09500000000,262749.4
1742703967.959190,,0,Tag,4,3.522,4.038,5.418,5.815,,9.757778,0.533196,0.297427,23.27997,1.86961,1.8998580000000000,-1369.189376,-64.303168,490.741472,-1368.0,-42.0,496.5,-80.73157600000000,61.725372,-82.313192,0.711086,-0.071605,-0.6758140000000000,-0.180285,262767.09500000000,262769.401
1742703967.979660,,0,Tag,4,3.506,4.114,5.337,5.813,,10.400277000000000,0.9545120000000000,0.236625,21.81456,1.30528,1.765544,-1367.690112,-58.309356000000000,491.0152,-1366.5,-36.0,496.5,-80.819152,61.767896,-81.90128,0.71163,-0.06943000000000000,-0.676344,-0.176972,262787.09500000000,262789.366
1742703968.000250,,0,Tag,4,3.515,4.112,5.444,5.772,,10.044059000000000,1.14353,0.170394,19.347570000000000,1.162379,4.265157000000000,-1369.183744,-49.183612,488.419744,-1368.0,-27.0,493.5,-80.946912,61.772468000000000,-81.494528,0.712071,-0.067757,-0.6769030000000000,-0.173683,262807.09500000000,262809.4
1742703968.018590,,0,Tag,4,3.525,4.043,5.411,5.751,,9.737222,2.151138,-0.040252000000000000,17.647390000000000,1.451398,3.23492,-1363.19104,-49.318636,491.431264,-1362.0,-27.0,496.5,-81.1062,61.567520000000000,-80.91728000000000,0.712581,-0.066563,-0.677321,-0.17039000000000000,262827.09500000000,262829.364
1742703968.039020,,0,Tag,4,3.476,4.068,5.437,5.748,,10.068628,2.4527670000000000,-0.221156,14.477778000000000,1.875962,1.9721340000000000,-1370.690944,-49.318636,491.41292800000000,-1369.5,-27.0,496.5,-81.259136,61.299876,-80.32547200000000,0.7130640000000000,-0.06563,-0.6776450000000000,-0.167413,262847.09500000000,262849.366
1742703968.059460,,0,Tag,4,3.511,4.11,5.404,5.753,,10.487085000000000,2.677348,-0.24609700000000000,11.656499,2.156269,1.162679,-1372.1955840000000,-40.395424,493.312768,-1371.0,-18.0,498.0,-81.39392,61.008148,-79.770888,0.7134890000000000,-0.064959,-0.6778760000000000,-0.164915,262867.09500000000,262869.39900000000
1742703968.078900,,0,Tag,4,3.465,4.114,5.444,5.777,,10.437916,2.842939,-0.056815,8.104051,1.524187,2.003847,-1370.688256,-40.2604,490.31958400000000,-1369.5,-18.0,495.0,-81.534976,60.608432,-79.17525600000000,0.7138830000000000,-0.064751,-0.6780000000000000,-0.162764,262887.09500000000,262889.363
1742703968.099330,,0,Tag,4,3.539,4.066,5.38,5.763,,10.107909,3.207967,-0.153808,4.234821,0.42173100000000000,2.666096,-1369.177216,-40.057864000000000,485.82793600000000,-1368.0,-18.0,490.5,-81.706256,60.1235,-78.56892000000000,0.714174,-0.065186,-0.678102,-0.16088,262907.09500000000,262909.36100000000
1742703968.119760,,0,Tag,4,3.462,4.147,5.463,5.772,,10.038755,3.1863160000000000,-0.17174900000000000,0.633451,0.260233,2.381566,-1367.684352,-43.189796,488.69344000000000,-1366.5,-21.0,493.5,-81.88562400000000,59.628120000000000,-78.02800000000000,0.71433,-0.066116,-0.678192,-0.15942100000000000,262927.09500000000,262929.401
1742703968.140190,,0,Tag,4,3.511,4.179,5.368,5.736,,10.356257,3.245027,-0.03241,-3.263337,-0.08580300000000000,2.775207,-1369.1805440000000,-44.62074,487.123872,-1368.0,-22.5,492.0,-82.067584,59.029108,-77.457576,0.7144390000000000,-0.06753000000000000,-0.678182,-0.15838,262947.09500000000,262949.366
1742703968.158580,,0,Tag,4,3.458,4.122,5.44,5.746,,10.535292,3.4401630000000000,-0.06798600000000000,-7.151966,-1.064254,3.900337,-1364.658048,-47.212576,478.00924800000000,-1363.5,-25.5,483.0,-82.269504,58.335724,-76.871496,0.7144500000000000,-0.06955,-0.6781270000000000,-0.157691,262967.09500000000,262969.368
1742703968.179010,,0,Tag,4,3.548,4.149,5.38,5.82,,10.400954000000000,3.340391,-0.15160000000000000,-11.215051000000000,-1.951922,2.7390500000000000,-1367.687808,-44.755760000000000,490.12438400000000,-1366.5,-22.5,495.0,-82.49418400000000,57.591348000000000,-76.31688,0.7143080000000000,-0.072199,-0.678072,-0.157377,262987.09500000000,262989.401
1742703968.199430,,0,Tag,4,3.439,4.149,5.449,5.729,,10.326615,3.700253,-0.364933,-14.372096000000000,-2.340382,0.474497,-1364.706176,-45.093324000000000,497.623904,-1363.5,-22.5,502.5,-82.688552,57.117276,-76.10056,0.7139060000000000,-0.074986,-0.678107,-0.157747,263007.09500000000,263009.368
1742703968.219840,,0,Tag,4,3.504,4.12,5.389,5.734,,10.605879,3.23743,-0.27433200000000000,-17.952506,-3.2279110000000000,-0.315102,-1372.184064,-44.688252,488.614944,-1371.0,-22.5,493.5,-82.85927200000000,56.731272,-76.046432,0.7133690000000000,-0.078045,-0.678095,-0.158741,263027.09500000000,263029.365
1742703968.239300,,0,Tag,4,3.46,4.131,5.416,5.765,,10.59807,3.1069520000000000,-0.09333700000000000,-21.334256,-4.14811,-0.122572,-1370.702464,-43.527360000000000,496.178272,-1369.5,-21.0,501.0,-83.02737600000000,56.422952000000000,-76.136984,0.712676,-0.081458,-0.678082,-0.160192,263047.09500000000,263049.401
1742703968.259780,,0,Tag,4,3.492,4.139,5.411,5.731,,10.464991,3.063929,0.11628,-24.062048000000000,-4.196091,-0.90633,-1372.205824,-46.591772,497.53801600000000,-1371.0,-24.0,502.5,-83.18165600000000,56.140004,-76.3198,0.7118870000000000,-0.08517900000000000,-0.67799,-0.16214200000000000,263067.09500000000,263069.364
1742703968.279250,,0,Tag,4,3.49,4.105,5.435,5.751,,10.104105000000000,2.741476,0.23041500000000000,-27.659434000000000,-4.526605,-1.409081,-1373.7024,-45.025812000000000,496.10342400000000,-1372.5,-22.5,501.0,-83.322656,55.863952,-76.57276,0.711016,-0.089193,-0.677804,-0.16456000000000000,263087.09500000000,263089.365
1742703968.298730,,0,Tag,4,3.544,4.089,5.346,5.81,,10.325801,2.4526880000000000,0.517806,-30.754276000000000,-4.631473,-1.136371,-1361.7158400000000,-58.781936000000000,501.518912,-1360.5,-36.0,507.0,-83.446992,55.56398,-76.866776,0.710086,-0.093501,-0.677488,-0.167465,263107.09500000000,263109.4
1742703968.319170,,0,Tag,4,3.553,4.041,5.48,5.791,,10.501538,2.259004,0.658117,-33.420818,-5.48502,-1.3997980000000000,-1363.209472,-48.15774,498.990976,-1362.0,-25.5,504.0,-83.57129600000000,55.256896,-77.21201600000000,0.709054,-0.09815200000000000,-0.677097,-0.170725,263127.09500000000,263129.368
1742703968.339600,,0,Tag,4,3.497,4.066,5.384,5.844,,10.226278000000000,1.8278160000000000,0.57085,-35.98522,-6.101866000000000,-1.558069,-1366.230016,-62.048896,507.36659200000000,-1365.0,-39.0,513.0,-83.690184,55.101536000000000,-77.76344,0.7078330000000000,-0.103048,-0.676713,-0.174388,263147.09500000000,263149.367
1742703968.360020,,0,Tag,4,3.56,4.152,5.349,5.772,,10.075427,1.731634,0.589948,-38.495768,-6.268016000000000,-1.6272850000000000,-1364.7120640000000,-58.714424000000000,500.013152,-1363.5,-36.0,505.5,-83.805336,55.008360000000000,-78.424584,0.7064850000000000,-0.10818500000000000,-0.67628,-0.178375,263167.09500000000,263169.403
1742703968.379550,,0,Tag,4,3.501,4.08,5.349,5.827,,10.142253,1.384261,0.6663010000000000,-40.619228,-6.45034,-1.889405,-1361.745536,-56.325128,513.641408,-1360.5,-33.0,519.0,-83.91295200000000,54.944636000000000,-79.16266400000000,0.705035,-0.113549,-0.675761,-0.182694,263187.09500000000,263189.373
1742703968.399040,,0,Tag,4,3.551,4.03,5.38,5.842,,10.064308000000000,1.0993440000000000,0.880582,-42.462572,-6.802473,-2.122165,-1364.740992,-62.251436,511.865568,-1363.5,-39.0,517.5,-84.004792,54.944888,-80.00428,0.703487,-0.11903700000000000,-0.675155,-0.18735,263207.09500000000,263209.375
1742703968.419570,,0,Tag,4,3.527,3.984,5.334,5.88,,9.940324,0.8967800000000000,0.833955,-44.2556,-7.283554,-1.972553,-1366.2368,-66.679276,510.16096,-1365.0,-43.5,516.0,-84.093104,55.005692000000000,-80.94260800000000,0.701819,-0.12470000000000000,-0.674492,-0.192248,263227.09500000000,263229.409
1742703968.440010,,0,Tag,4,3.527,3.975,5.382,5.861,,9.718356,0.598791,1.04739,-45.780104,-6.918133,-2.26285,-1363.2360960000000,-72.673096,509.89824,-1362.0,-49.5,516.0,-84.172336,55.100228000000000,-81.948272,0.700058,-0.130497,-0.673738,-0.197396,263247.09500000000,263249.378
1742703968.459410,,0,Tag,4,3.619,3.956,5.356,5.873,,9.677131,0.449021,1.122365,-46.988936000000000,-6.874705,-2.723589,-1366.250368,-77.438504,515.6820800000000,-1365.0,-54.0,522.0,-84.23326400000000,55.169072,-82.955072,0.698263,-0.136347,-0.67284,-0.202788,263267.09500000000,263269.382
1742703968.479870,,0,Tag,4,3.635,3.879,5.387,5.961,,9.59277,0.25845600000000000,1.107414,-48.379384000000000,-7.067395000000000,-2.838917,-1360.267648,-88.265232,522.716384,-1359.0,-64.5,529.5,-84.287464,55.306088000000000,-84.056032,0.696352,-0.142289,-0.671882,-0.20837600000000000,263287.09500000000,263289.423
1742703968.499290,,0,Tag,4,3.682,3.891,5.351,5.973,,9.514086000000000,0.10127800000000000,1.2168460000000000,-49.217564000000000,-6.958463,-2.946863,-1360.2639360000000,-89.696176,521.1504,-1359.0,-66.0,528.0,-84.330512,55.47826,-85.215064,0.694356,-0.148288,-0.670833,-0.21415400000000000,263307.09500000000,263309.386
1742703968.519770,,0,Tag,4,3.614,3.895,5.339,6.042,,9.377407,-0.019222,1.3112520000000000,-50.167224,-6.931388,-2.5795530000000000,-1358.78144,-96.027552,528.376224,-1357.5,-72.0,535.5,-84.370888,55.607364,-86.34789600000000,0.69231,-0.15437100000000000,-0.6696760000000000,-0.220022,263327.09500000000,263329.393
1742703968.539170,,0,Tag,4,3.691,3.863,5.286,5.978,,9.275307,-0.078002,1.3772390000000000,-51.063456000000000,-6.940168,-2.393137,-1361.791872,-102.22390400000000,532.594112,-1360.5,-78.0,540.0,-84.410656,55.686048,-87.44892,0.6902080000000000,-0.16056000000000000,-0.668406,-0.22597500000000000,263347.09500000000,263349.429
1742703968.559660,,0,Tag,4,3.663,3.86,5.341,5.985,,9.291795000000000,-0.147947,1.465381,-51.5338,-6.6088380000000000,-2.888608,-1358.7877120000000,-106.65176,530.900448,-1357.5,-82.5,538.5,-84.440776,55.748804,-88.54727200000000,0.6880540000000000,-0.166761,-0.667029,-0.232041,263367.09500000000,263369.396
1742703968.580110,,0,Tag,4,3.661,3.837,5.274,6.031,,9.371389000000000,-0.071642,1.412879,-52.482396000000000,-6.677096,-2.806965,-1357.28768,-106.65176,530.904128,-1356.0,-82.5,538.5,-84.46604000000000,55.789488,-89.63656,0.685839,-0.173002,-0.6655520000000000,-0.23818800000000000,263387.09500000000,263389.39900000000
1742703968.599590,,0,Tag,4,3.705,3.717,5.298,6.078,,9.447933000000000,-0.15426300000000000,1.4253210000000000,-53.409996,-6.824876,-2.059265,-1360.2982400000000,-111.349648,535.189568,-1359.0,-87.0,543.0,-84.49928800000000,55.792852000000000,-90.70812,0.683538,-0.179397,-0.6639810000000000,-0.24437800000000000,263407.09500000000,263409.453
1742703968.618970,,0,Tag,4,3.701,3.689,5.284,6.078,,9.48573,-0.093096,1.436586,-54.069164,-7.169169000000000,-1.776454,-1352.80128,-117.410984,536.4363520000000,-1351.5,-93.0,544.5,-84.544288,55.764212,-91.76336000000000,0.681147,-0.185944,-0.6623280000000000,-0.250565,263427.09500000000,263429.42100000000
1742703968.639400,,0,Tag,4,3.738,3.769,5.303,6.087,,9.459111,-0.023218,1.473222,-55.070124,-7.200258,-1.728716,-1348.300288,-126.401696,536.042304,-1347.0,-102.0,544.5,-84.597416,55.70476,-92.80336800000000,0.678671,-0.19262000000000000,-0.660584,-0.25676900000000000,263447.09500000000,263449.422
1742703968.659850,,0,Tag,4,3.816,3.691,5.248,6.042,,9.515373,0.034693,1.527328,-55.800804,-7.223136000000000,-1.661999,-1349.818368,-129.73616000000000,543.395776,-1348.5,-105.0,552.0,-84.651192,55.63314,-93.849768,0.676101,-0.19939200000000000,-0.658735,-0.263053,263467.09500000000,263469.46
1742703968.679330,,0,Tag,4,3.825,3.67,5.289,6.087,,9.661525,0.15952,1.6053010000000000,-56.738812000000000,-7.2496090000000000,-1.5609980000000000,-1352.8107520000000,-132.59805600000000,540.256448,-1351.5,-108.0,549.0,-84.7068,55.501812,-94.85140800000000,0.673468,-0.206251,-0.6567610000000000,-0.269379,263487.09500000000,263489.423
1742703968.699780,,0,Tag,4,3.884,3.649,5.217,6.139,,9.760075000000000,0.168059,1.688918,-57.635824,-7.3782750000000000,-1.3055140000000000,-1352.813696,-138.65937600000000,541.484928,-1351.5,-114.0,550.5,-84.766808,55.313784,-95.81760800000000,0.670748,-0.213246,-0.654654,-0.27577,263507.09500000000,263509.424
1742703968.720200,,0,Tag,4,3.872,3.567,5.25,6.139,,9.751063,0.249749,1.712804,-58.627692000000000,-7.651924000000000,-1.140846,-1348.320896,-140.292848,544.425216,-1347.0,-115.5,553.5,-84.835064,55.114408,-96.79012,0.667917,-0.22037200000000000,-0.65245,-0.28218700000000000,263527.09500000000,263529.458
1742703968.739570,,0,Tag,4,3.898,3.548,5.227,6.187,,9.867281,0.397277,1.730489,-59.551516,-7.953697,-1.26589,-1345.331072,-149.486112,548.5228160000000,-1344.0,-124.5,558.0,-84.90837600000000,54.92364,-97.788752,0.664968,-0.227603,-0.65015,-0.288647,263547.09500000000,263549.425
1742703968.758970,,0,Tag,4,3.931,3.555,5.25,6.207,,9.95485,0.404064,1.8253410000000000,-60.762108,-8.092944,-1.50515,-1343.82272,-158.341808,545.124608,-1342.5,-133.5,555.0,-84.983704,54.735508000000000,-98.81448000000000,0.661886,-0.234961,-0.647728,-0.295207,263567.09500000000,263569.456
1742703968.779400,,0,Tag,4,3.935,3.544,5.198,6.243,,9.995561,0.42379,1.8817090000000000,-61.576616000000000,-8.294908,-1.6574,-1348.336768,-163.107216,550.904768,-1347.0,-138.0,561.0,-85.055176,54.595284,-99.907288,0.658666,-0.24237,-0.645203,-0.301873,263587.09500000000,263589.457
1742703968.799870,,0,Tag,4,3.924,3.467,5.186,6.239,,9.981683,0.518365,1.9216150000000000,-62.766604000000000,-8.765492,-1.328941,-1343.832064,-173.528864,548.944768,-1342.5,-148.5,559.5,-85.13292800000000,54.461728,-101.02868,0.655307,-0.249913,-0.6425610000000000,-0.308593,263607.09500000000,263609.424
1742703968.820380,,0,Tag,4,3.907,3.511,5.217,6.236,,10.002969,0.6544170000000000,1.925725,-63.996924,-9.090608,-1.262387,-1346.84224,-179.725216,553.162688,-1345.5,-154.5,564.0,-85.22160800000000,54.343832,-102.187952,0.651797,-0.257616,-0.6398080000000000,-0.315339,263627.09500000000,263629.455
1742703968.838780,,0,Tag,4,4.003,3.494,5.097,6.207,,10.031175,0.710951,1.966124,-65.331788,-9.350369000000000,-1.3062750000000000,-1333.342336,-181.22368,553.128256,-1332.0,-156.0,564.0,-85.314584,54.247584000000000,-103.395528,0.648126,-0.265461,-0.636919,-0.32217200000000000,263647.09500000000,263649.455
1742703968.859260,,0,Tag,4,4.066,3.499,5.179,6.261,,10.047787,0.855035,2.009019,-66.650176,-9.687626,-1.1877200000000000,-1340.8302080000000,-190.01187200000000,548.209472,-1339.5,-165.0,559.5,-85.41324,54.166712,-104.64525600000000,0.644292,-0.273454,-0.633888,-0.329081,263667.09500000000,263669.422
1742703968.879720,,0,Tag,4,4.043,3.432,5.069,6.351,,9.994197,1.0419670000000000,2.048044,-68.14216000000000,-9.829204000000000,-1.3224830000000000,-1333.333888,-191.577824,549.658816,-1332.0,-166.5,561.0,-85.51852,54.088788,-105.925608,0.640295,-0.28160600000000000,-0.6307000000000000,-0.33606000000000000,263687.09500000000,263689.455
1742703968.900190,,0,Tag,4,4.126,3.393,5.167,6.299,,9.880294,1.104713,2.1365880000000000,-69.757584,-10.098581,-1.438281,-1330.3511040000000,-202.404576,556.68576,-1329.0,-177.0,568.5,-85.62565600000000,54.005476000000000,-107.230904,0.63613,-0.28989700000000000,-0.627332,-0.343148,263707.09500000000,263709.457
1742703968.919630,,0,Tag,4,4.145,3.334,5.128,6.306,,9.839962,1.108703,2.2395010000000000,-70.98596000000000,-10.142996,-1.5575030000000000,-1339.331328,-214.054624,548.631488,-1338.0,-189.0,561.0,-85.730848,53.934824,-108.57836000000000,0.631791,-0.298296,-0.623784,-0.350359,263727.09500000000,263729.422
1742703968.939030,,0,Tag,4,4.133,3.271,5.138,6.347,,9.812923,1.126896,2.335768,-72.48174400000000,-10.355867,-1.6846250000000000,-1334.838528,-215.688112,551.571776,-1333.5,-190.5,564.0,-85.83369600000000,53.861088000000000,-109.95058400000000,0.627285,-0.306787,-0.620047,-0.35768100000000000,263747.09500000000,263749.458
1742703968.959500,,0,Tag,4,4.246,3.317,5.033,6.349,,9.78366,1.01643,2.412721,-73.758912,-10.369399,-1.859128,-1331.848448,-224.881376,555.6693760000000,-1330.5,-199.5,568.5,-85.931192,53.832552,-111.396768,0.622584,-0.315349,-0.616131,-0.36513600000000000,263767.09500000000,263769.455
1742703968.980030,,0,Tag,4,4.225,3.281,5.042,6.408,,9.714215,0.857522,2.460358,-75.162832,-10.454127,-2.008845,-1327.344,-233.80456000000000,553.776896,-1326.0,-208.5,567.0,-86.020248,53.8681,-112.93100800000000,0.617694,-0.32393300000000000,-0.612049,-0.37271300000000000,263787.09500000000,263789.434
1742703968.999490,,0,Tag,3,4.208,3.278,5.042,,,9.718794000000000,0.735103,2.547752,-75.96224,-10.427084000000000,-2.208042,-1328.84352,-238.29992,553.570688,-1327.5,-213.0,567.0,-86.099976,53.972888,-114.55610400000000,0.6126160000000000,-0.332518,-0.607806,-0.380399,263807.09500000000,263809.465
1742703969.018860,,0,Tag,4,4.279,3.274,5.016,6.408,,9.663105,0.55069,2.653206,-76.98706400000000,-10.321227,-2.207637,-1325.838464,-250.22006400000000,551.5395200000000,-1324.5,-225.0,565.5,-86.17096,54.118916,-116.243016,0.60736,-0.341099,-0.603391,-0.388179,263827.09500000000,263829.466
1742703969.039290,,0,Tag,4,4.275,3.237,4.999,6.369,,9.609292,0.420017,2.767894,-77.864344,-10.422969,-2.3701240000000000,-1324.33024,-259.075744,548.141312,-1323.0,-234.0,562.5,-86.23007200000000,54.288092,-117.97076800000000,0.6019400000000000,-0.349639,-0.5988,-0.396051,263847.09500000000,263849.431
1742703969.059740,,0,Tag,4,4.294,3.212,4.975,6.529,,9.595765,0.13758100000000000,2.8586230000000000,-78.700048,-10.294379,-2.255356,-1322.840704,-263.773648,552.43776,-1321.5,-238.5,567.0,-86.28296,54.478796000000000,-119.737928,0.5963500000000000,-0.35817100000000000,-0.594036,-0.403978,263867.09500000000,263869.466
1742703969.079220,,0,Tag,4,4.401,3.145,4.98,6.59,,9.55503,-0.034688,2.882116,-79.2524,-10.286027000000000,-2.0176150000000000,-1324.325504,-267.99896,546.2378240000000,-1323.0,-243.0,561.0,-86.332488,54.663584,-121.51212800000000,0.590614,-0.366684,-0.589104,-0.411913,263887.09500000000,263889.43200000000
1742703969.099660,,0,Tag,4,4.319,3.154,4.887,6.435,,9.511295000000000,-0.14093800000000000,2.933769,-79.777344,-9.993510000000000,-2.1485660000000000,-1316.820864,-278.420608,544.28512,-1315.5,-253.5,559.5,-86.378424,54.848628,-123.297592,0.584733,-0.37516300000000000,-0.584011,-0.41984500000000000,263907.09500000000,263909.433
1742703969.120090,,0,Tag,4,4.401,3.143,4.903,6.459,,9.539110000000000,-0.244632,2.946725,-80.087696,-9.781940000000000,-2.422892,-1328.823424,-287.47884800000000,545.34912,-1327.5,-262.5,561.0,-86.41215200000000,55.05292,-125.11044,0.578709,-0.38353500000000000,-0.578772,-0.427807,263927.09500000000,263929.467
1742703969.139530,,0,Tag,4,4.47,3.115,4.899,6.507,,9.585841,-0.328823,2.97667,-80.408216,-9.877578,-2.287134,-1318.33024,-293.607712,548.101632,-1317.0,-268.5,564.0,-86.439928,55.255692000000000,-126.927392,0.572554,-0.391825,-0.573391,-0.435747,263947.09500000000,263949.43
1742703969.159030,,0,Tag,4,4.409,3.113,4.844,6.509,,9.450659,-0.275987,3.107631,-80.53236,-9.817598,-1.985769,-1315.310336,-308.254624,539.9417600000000,-1314.0,-283.5,556.5,-86.466312,55.438548,-128.727904,0.566286,-0.400049,-0.567871,-0.443623,263967.09500000000,263969.431
1742703969.179920,,0,Tag,4,4.528,3.11,4.829,6.5,,9.568397,-0.865182,3.005589,-79.90026400000000,-9.621305,-3.289132,-1321.31008,-309.75312000000000,539.8595840000000,-1320.0,-285.0,556.5,-86.47792,55.76182,-130.67099200000000,0.559842,-0.408115,-0.56228,-0.451507,263987.09500000000,263989.462
1742703969.198580,,0,Tag,4,4.547,3.053,4.887,6.464,,9.617179,-0.36528100000000000,2.903971,-80.244472,-9.437124000000000,-3.131471,-1321.294592,-316.975328,533.5282560000000,-1320.0,-292.5,550.5,-86.477248,56.146436000000000,-132.661192,0.553315,-0.41595900000000000,-0.556653,-0.4593,264007.09500000000,264009.428
1742703969.219060,,0,Tag,4,4.489,3.051,4.813,6.48,,9.479924000000000,-0.670327,3.071541,-79.98163200000000,-9.269824,-2.9123000000000000,-1319.778816,-325.69600000000000,527.133184,-1318.5,-301.5,544.5,-86.47792,56.528908000000000,-134.657648,0.546647,-0.423776,-0.550883,-0.46703,264027.09500000000,264029.428
1742703969.239650,,0,Tag,4,4.633,3.051,4.813,6.602,,9.595675,-0.6137350000000000,3.06343,-80.38244,-9.626812,-2.3472400000000000,-1322.778624,-327.19449600000000,527.0583360000000,-1321.5,-303.0,544.5,-86.48352800000000,56.827184000000000,-136.566192,0.5399230000000000,-0.431523,-0.544983,-0.474618,264047.09500000000,264049.464
1742703969.260080,,0,Tag,4,4.71,3.064,4.777,6.543,,9.517676,-0.613572,3.1045910000000000,-79.59688,-9.542334,-2.81629,-1321.2728320000000,-346.60684800000000,524.68592,-1320.0,-322.5,543.0,-86.48136800000000,57.133752000000000,-138.482624,0.533085,-0.439139,-0.538984,-0.48215400000000000,264067.09500000000,264069.427
1742703969.279500,,0,Tag,4,4.698,3.092,4.75,6.599,,9.495467,-0.676744,3.059952,-80.180544,-9.98678,-2.2555,-1321.261184,-352.398144,519.920544,-1320.0,-328.5,538.5,-86.490616,57.377740000000000,-140.333216,0.526192,-0.446723,-0.5328580000000000,-0.489511,264087.09500000000,264089.431
1742703969.299870,,0,Tag,4,4.786,3.06,4.75,6.568,,9.530471,-0.553211,3.116093,-79.820712,-9.713304000000000,-2.4049800000000000,-1321.242112,-359.552864,512.09088,-1320.0,-336.0,531.0,-86.50056,57.68716,-142.251408,0.519164,-0.454242,-0.52664,-0.49677100000000000,264107.09500000000,264109.461
1742703969.319240,,0,Tag,4,4.824,3.046,4.698,6.547,,9.756197,-0.8439360000000000,3.331072,-79.90471200000000,-10.700581,-1.7552570000000000,-1316.727296,-360.781248,506.04064,-1315.5,-337.5,525.0,-86.51468800000000,57.947424,-144.119504,0.512066,-0.461692,-0.520296,-0.503904,264127.09500000000,264129.43
1742703969.339650,,0,Tag,4,4.805,3.028,4.643,6.64,,9.854964000000000,-0.841552,3.3512840000000000,-78.85125600000000,-11.465254,-2.3460130000000000,-1313.737856,-365.479136,510.34076800000000,-1312.5,-342.0,529.5,-86.5322,58.514984,-146.283808,0.5048120000000000,-0.469049,-0.514,-0.510842,264147.09500000000,264149.427
1742703969.359150,,0,Tag,4,4.877,3.104,4.609,6.532,,9.637878000000000,-0.922163,3.1123090000000000,-78.803432,-11.548288,-2.137887,-1319.729664,-372.836384,506.991648,-1318.5,-349.5,526.5,-86.552528,59.318648000000000,-148.674288,0.49743100000000000,-0.47631600000000000,-0.50772,-0.517594,264167.09500000000,264169.46
1742703969.379600,,0,Tag,3,4.927,3.048,4.573,,,9.504466000000000,-1.008596,2.935966,-78.14752,-11.440326000000000,-2.641695,-1316.69568,-379.721024,493.175552,-1315.5,-357.0,513.0,-86.56652800000000,60.302524,-151.238208,0.48992000000000000,-0.48345300000000000,-0.501435,-0.524226,264187.09500000000,264189.426
1742703969.400140,,0,Tag,4,4.947,3.025,4.549,6.532,,9.585234,-1.165905,2.84206,-78.05906400000000,-11.159338,-2.57705,-1310.706688,-381.422016,497.61801600000000,-1309.5,-358.5,517.5,-86.571552,61.376888000000000,-153.883456,0.482319,-0.490428,-0.49513200000000000,-0.530747,264207.09500000000,264209.425
1742703969.419620,,0,Tag,4,5.018,3.035,4.511,6.579,,9.673451,-1.253295,2.860338,-77.336824,-10.488437,-2.5962040000000000,-1313.680512,-385.44483200000000,486.919136,-1312.5,-363.0,507.0,-86.563392,62.34802,-156.41723200000000,0.47467900000000000,-0.497202,-0.488753,-0.537204,264227.09500000000,264229.436
1742703969.439060,,0,Tag,4,4.987,3.037,4.453,6.525,,9.964708,-1.283108,3.149788,-76.692024,-10.90864,-1.9451940000000000,-1318.179072,-397.43244800000000,486.368,-1317.0,-375.0,507.0,-86.549064,63.074008,-158.694288,0.46708,-0.5037810000000000,-0.48226000000000000,-0.543567,264247.09500000000,264249.397
1742703969.459520,,0,Tag,4,5.073,3.094,4.432,6.55,,9.37895,-2.613863,2.717953,-73.95337600000000,-9.649384,-4.613039,-1309.160704,-398.593344,478.83036800000000,-1308.0,-376.5,499.5,-86.509856,64.305008,-161.470928,0.459184,-0.510185,-0.475933,-0.5498610000000000,264267.09500000000,264269.397
1742703969.479030,,0,Tag,4,5.145,3.076,4.319,6.59,,9.700315,-2.115483,2.816105,-76.349064,-10.306238000000000,-3.416236,-1307.65312,-401.4552,475.70217600000000,-1306.5,-379.5,496.5,-86.48052800000000,65.00227200000000,-163.66883200000000,0.45162600000000000,-0.516311,-0.469522,-0.555881,264287.09500000000,264289.435
1742703969.499520,,0,Tag,4,5.181,3.092,4.267,6.543,,9.665256,-1.958675,2.7558660000000000,-73.974176,-10.071445000000000,-4.260518,-1309.1376640000000,-407.178976,469.434752,-1308.0,-385.5,490.5,-86.449952,65.90204,-166.076384,0.44387900000000000,-0.5224180000000000,-0.463074,-0.561793,264307.09500000000,264309.398
1742703969.520140,,0,Tag,4,5.124,3.067,4.355,6.464,,9.688528,-2.5360040000000000,3.0113750000000000,-74.73799200000000,-10.515835,-2.7670210000000000,-1313.6222720000000,-412.90275200000000,463.159968,-1312.5,-391.5,484.5,-86.435088,66.57373200000000,-168.246464,0.43622300000000000,-0.528461,-0.45647300000000000,-0.567511,264327.09500000000,264329.397
1742703969.539630,,0,Tag,4,5.231,3.099,4.244,6.478,,9.564392,-1.6228670000000000,2.932962,-73.474552,-10.125356,-5.229425,-1310.6001920000000,-413.996128,454.109216,-1309.5,-393.0,475.5,-86.402992,67.311872,-170.461488,0.42852400000000000,-0.534257,-0.449965,-0.5731190000000000,264347.09500000000,264349.434
1742703969.559000,,0,Tag,4,5.243,3.117,4.281,6.48,,9.412143,-0.918662,2.610849,-72.334576,-9.733732,-5.438021,-1306.103424,-418.558976,455.41612800000000,-1305.0,-397.5,477.0,-86.35465600000000,68.223456,-172.83524800000000,0.420713,-0.539868,-0.443563,-0.5786130000000000,264367.09500000000,264369.386
1742703969.579440,,0,Tag,4,5.207,3.143,4.198,6.459,,9.262927,-1.309725,2.5234260000000000,-72.251752,-10.014163,-4.639041,-1306.092032,-421.35337600000000,450.785824,-1305.0,-400.5,472.5,-86.310512,69.151456,-175.22296,0.41284900000000000,-0.545428,-0.4371,-0.583957,264387.09500000000,264389.387
1742703969.598840,,0,Tag,4,5.327,3.127,4.108,6.498,,9.316399000000000,-1.2219990000000000,2.428645,-71.560512,-10.213801,-3.281443,-1310.5537280000000,-435.662784,435.115392,-1309.5,-415.5,457.5,-86.26529600000000,70.0818,-177.597184,0.404989,-0.5508570000000000,-0.430651,-0.5891340000000000,264407.09500000000,264409.425
1742703969.619280,,0,Tag,4,5.384,3.152,4.152,6.43,,9.325301,-1.293803,2.3457750000000000,-71.75654400000000,-10.590452000000000,-2.2479460000000000,-1309.068544,-434.4344,441.18028800000000,-1308.0,-414.0,463.5,-86.247256,70.885768,-179.843648,0.397209,-0.556326,-0.42401,-0.5940870000000000,264427.09500000000,264429.386
1742703969.639700,,0,Tag,4,5.341,3.168,4.076,6.457,,9.290139,-0.9789360000000000,2.079853,-70.92832,-10.243108,-2.6356540000000000,-1310.553856,-434.164352,435.18288000000000,-1309.5,-414.0,457.5,-86.231528,71.81221600000000,177.79772800000000,-0.389393,0.561724,0.417382,0.598857,264447.09500000000,264449.391
1742703969.660130,,0,Tag,4,5.518,3.159,4.078,6.43,,9.157042000000000,-1.147085,2.0829520000000000,-71.186576,-9.621249000000000,-1.7905660000000000,-1297.0272,-444.18089600000000,424.254368,-1296.0,-424.5,447.0,-86.216752,72.660536,175.518912,-0.381557,0.5670300000000000,0.410663,0.6035270000000000,264467.09500000000,264469.426
1742703969.679530,,0,Tag,3,5.463,3.202,4.045,,,9.34395,-0.895011,2.27895,-70.646784,-9.324718000000000,-2.103962,-1304.5236480000000,-442.614944,422.805056,-1303.5,-423.0,445.5,-86.199392,73.23066400000000,173.52232000000000,-0.373766,0.5721610000000000,0.40381800000000000,0.608162,264487.09500000000,264489.385
1742703969.699990,,0,Tag,4,5.542,3.269,4.022,6.43,,9.355676000000000,-0.927724,2.3908200000000000,-70.26488000000000,-10.050722,-1.7623120000000000,-1300.000896,-448.203712,413.55548800000000,-1299.0,-429.0,436.5,-86.183296,73.79680000000000,171.53659200000000,-0.365961,0.577193,0.39693800000000000,0.6126660000000000,264507.09500000000,264509.388
1742703969.719370,,0,Tag,4,5.442,3.285,4.022,6.405,,9.277686,-0.9004060000000000,2.467679,-69.609344,-9.404159,-2.5082970000000000,-1295.50848,-448.33872000000000,416.56336,-1294.5,-429.0,439.5,-86.160848,74.317888,169.606176,-0.35814400000000000,0.582069,0.390059,0.6170750000000000,264527.09500000000,264529.423
1742703969.738750,,0,Tag,4,5.507,3.304,3.956,6.34,,9.157354,-0.8566270000000000,2.503567,-68.868264,-9.379264,-3.261729,-1299.978368,-452.29398400000000,404.36233600000000,-1299.0,-433.5,427.5,-86.12081600000000,74.743496,167.784256,-0.350296,0.586712,0.38323200000000000,0.621444,264547.09500000000,264549.393
1742703969.759180,,0,Tag,4,5.617,3.331,3.947,6.437,,9.310623,-1.001773,2.436411,-69.04913600000000,-10.006326,-2.636412,-1298.470912,-453.657408,401.301632,-1297.5,-435.0,424.5,-86.07588800000000,75.296088,165.8456,-0.342389,0.591262,0.37646200000000000,0.625663,264567.09500000000,264569.39
1742703969.779660,,0,Tag,4,5.66,3.334,3.898,6.335,,9.369996,-0.9998860000000000,2.328437,-68.74154400000000,-10.315682000000000,-2.5844680000000000,-1299.9591680000000,-460.947136,396.46512000000000,-1299.0,-442.5,420.0,-86.04448,75.96653600000000,163.787216,-0.334445,0.595841,0.36960700000000000,0.62969,264587.09500000000,264589.425
1742703969.800130,,0,Tag,4,5.7,3.311,3.884,6.311,,9.340967,-0.97846,2.206485,-68.704104,-10.762922,-1.9615400000000000,-1292.452608,-454.818336,393.75664,-1291.5,-436.5,417.0,-86.021232,76.744008,161.625552,-0.326482,0.600403,0.362711,0.633533,264607.09500000000,264609.39400000000
1742703969.819520,,0,Tag,4,5.715,3.407,3.82,6.293,,9.203793,-0.864719,1.951523,-68.582808,-10.198722,-0.5220970000000000,-1290.94848,-459.246176,392.059392,-1290.0,-441.0,415.5,-86.01032,77.570752,159.41712000000000,-0.318533,0.604953,0.35573,0.6372,264627.09500000000,264629.422
1742703969.839950,,0,Tag,4,5.719,3.414,3.846,6.302,,9.285484,-0.977862,1.8799390000000000,-68.905624,-9.864021,-0.312419,-1289.429376,-464.9024,384.300864,-1288.5,-447.0,408.0,-86.021136,78.149776,157.45096000000000,-0.31069000000000000,0.6094500000000000,0.34849000000000000,0.6407770000000000,264647.09500000000,264649.422
1742703969.859400,,0,Tag,4,5.7,3.435,3.771,6.304,,9.33813,-0.790851,1.67204,-68.34880800000000,-9.109941,-1.610904,-1296.89984,-465.860768,372.227552,-1296.0,-448.5,396.0,-86.023744,78.770288,155.449296,-0.302791,0.6138240000000000,0.341273,0.644258,264667.09500000000,264669.412
1742703969.879850,,0,Tag,4,5.827,3.499,3.727,6.286,,9.682474,-0.734437,1.919119,-68.20128,-7.906296000000000,-2.17406,-1293.907328,-464.497344,375.299264,-1293.0,-447.0,399.0,-85.99606400000000,79.07150400000000,153.77848,-0.294852,0.617852,0.334124,0.6478270000000000,264687.09500000000,264689.447
1742703969.899270,,0,Tag,4,5.794,3.534,3.694,6.254,,10.019241,-0.876841,2.291473,-67.187168,-8.138281,-2.9404590000000000,-1295.392128,-470.22108800000000,369.03184,-1294.5,-453.0,393.0,-85.952136,79.166376,152.31664,-0.286858,0.621657,0.326968,0.6514180000000000,264707.09500000000,264709.447
1742703969.919720,,0,Tag,4,5.794,3.541,3.637,6.27,,10.256759000000000,-0.607069,2.42082,-68.10012,-8.657337,-1.873251,-1290.891648,-474.71644800000000,368.840288,-1290.0,-457.5,393.0,-85.925856,79.200672,150.923408,-0.27897,0.6254030000000000,0.31971,0.654852,264727.09500000000,264729.412
1742703969.940230,,0,Tag,4,5.818,3.548,3.654,6.275,,9.871382000000000,-0.49056100000000000,2.419029,-67.497672,-8.631527,-2.989966,-1286.376832,-475.94489600000000,362.79008,-1285.5,-459.0,387.0,-85.89525600000000,79.33097600000000,149.42752,-0.270956,0.6291,0.31242,0.658185,264747.09500000000,264749.44800000000
1742703969.959630,,0,Tag,4,5.887,3.593,3.619,6.22,,10.213081000000000,-0.149053,2.320278,-67.91332800000000,-9.163438,-1.6748240000000000,-1286.3468800000000,-479.900128,350.600096,-1285.5,-463.5,375.0,-85.87493600000000,79.472296,147.918672,-0.262942,0.632761,0.305027,0.661387,264767.09500000000,264769.449
1742703969.979150,,0,Tag,4,5.885,3.633,3.598,6.232,,10.500051,-0.08552700000000000,2.3073070000000000,-68.53364000000000,-10.440728,-0.697337,-1289.354368,-478.536704,353.65712000000000,-1288.5,-462.0,378.0,-85.896016,79.816104,146.19305600000000,-0.254974,0.6365960000000000,0.297352,0.664315,264787.09500000000,264789.413
1742703969.999610,,0,Tag,4,6.022,3.663,3.586,6.211,,10.329506,0.007273,2.012917,-68.394168,-10.277357,-1.806682,-1289.342592,-484.327968,348.891776,-1288.5,-468.0,373.5,-85.90892,80.43624,144.187808,-0.24684900000000000,0.64042,0.289715,0.6670770000000000,264807.09500000000,264809.457
1742703970.020120,,0,Tag,4,5.992,3.715,3.525,6.209,,9.908865000000000,-0.452601,1.9251510000000000,-69.58878400000000,-10.428982,-1.732907,-1286.3170560000000,-485.35385600000000,338.342624,-1285.5,-469.5,363.0,-85.916112,81.118336,142.11216,-0.23860300000000000,0.6441780000000000,0.282022,0.66975,264827.09500000000,264829.452
1742703970.039570,,0,Tag,4,5.897,3.705,3.485,6.205,,10.20751,-0.17024800000000000,1.901459,-69.261624,-10.191882,-2.398244,-1287.809152,-489.714208,335.139552,-1287.0,-474.0,360.0,-85.90644000000000,81.772984,140.06224,-0.230236,0.647783,0.274351,0.6723820000000000,264847.09500000000,264849.419
1742703970.058950,,0,Tag,4,5.858,3.729,3.465,6.108,,10.452054,-0.205807,2.130092,-70.161872,-10.128429000000000,-2.06096,-1290.79808,-488.01318400000000,330.704416,-1290.0,-472.5,355.5,-85.90232,82.34305600000000,138.086544,-0.22183,0.6513090000000000,0.266525,0.674945,264867.09500000000,264869.452
1742703970.079440,,0,Tag,4,6.024,3.813,3.425,6.063,,10.51569,-0.067692,2.307031,-70.396816,-10.263438000000000,-2.926798,-1286.2903040000000,-493.87200000000000,327.44854400000000,-1285.5,-478.5,352.5,-85.884256,82.80048,136.214144,-0.21328700000000000,0.6546760000000000,0.258652,0.677499,264887.09500000000,264889.455
1742703970.099910,,0,Tag,4,6.006,3.83,3.409,6.018,,10.193825,-0.107857,2.408058,-71.372304,-10.832335000000000,-2.027408,-1284.779264,-493.669472,322.956896,-1284.0,-478.5,348.0,-85.87204,83.283176,134.302416,-0.20466000000000000,0.6580080000000000,0.25062800000000000,0.679944,264907.09500000000,264909.423
1742703970.119370,,0,Tag,4,6.085,3.825,3.331,6.04,,10.153263000000000,-0.032631,2.3996620000000000,-71.892888,-11.071312000000000,-2.007457,-1283.252992,-499.19068800000000,312.201504,-1282.5,-484.5,337.5,-85.867584,83.814848,132.32556,-0.19594500000000000,0.66132,0.24243300000000000,0.6822660000000000,264927.09500000000,264929.461
1742703970.139830,,0,Tag,4,6.063,3.963,3.327,6.013,,10.39674,0.10464800000000000,2.324041,-72.743808,-11.272892000000000,-1.8921410000000000,-1280.227072,-501.71504,301.584832,-1279.5,-487.5,327.0,-85.869328,84.40628800000000,130.276688,-0.187158,0.664596,0.234096,0.684457,264947.09500000000,264949.425
1742703970.160330,,0,Tag,4,6.119,3.886,3.288,5.911,,10.606943,0.31991000000000000,2.1883620000000000,-73.499,-11.737,-2.160536,-1286.2234880000000,-498.65059200000000,300.20672000000000,-1285.5,-484.5,325.5,-85.873424,85.120864,128.088,-0.17824300000000000,0.6678570000000000,0.225623,0.6865050000000000,264967.09500000000,264969.43
1742703970.178760,,0,Tag,4,6.171,3.924,3.324,5.921,,10.520427,0.526121,2.058401,-74.74581600000000,-11.594622,-1.969288,-1289.21216,-501.44499200000000,295.56908800000000,-1288.5,-487.5,321.0,-85.88224800000000,85.928232,125.787736,-0.169212,0.6710970000000000,0.216977,0.688415,264987.09500000000,264989.468
1742703970.199240,,0,Tag,4,6.157,4.02,3.288,5.877,,10.280578,0.396962,2.102526,-75.659384,-11.784570000000000,-1.959403,-1289.179392,-497.840448,282.218208,-1288.5,-484.5,307.5,-85.89282400000000,86.72310400000000,123.477256,-0.160041,0.674264,0.20813400000000000,0.690241,265007.09500000000,265009.43700000000
1742703970.219670,,0,Tag,4,6.119,4.007,3.147,5.88,,10.098335000000000,0.33358500000000000,2.21704,-76.37508,-11.369291000000000,-2.473518,-1289.1677440000000,-503.631712,277.452896,-1288.5,-490.5,303.0,-85.891256,87.45544800000000,121.212744,-0.150693,0.6772930000000000,0.199206,0.692013,265027.09500000000,265029.443
1742703970.240090,,0,Tag,4,6.184,4.049,3.166,5.868,,9.97237,0.07999000000000000,2.515322,-76.986448,-11.255762000000000,-3.0066000000000000,-1284.646016,-501.72822400000000,268.54083200000000,-1284.0,-489.0,294.0,-85.874088,87.96131200000000,119.15976000000000,-0.141172,0.6801040000000000,0.190206,0.693793,265047.09500000000,265049.476
1742703970.259580,,0,Tag,4,6.234,4.172,3.133,5.882,,9.807025,-0.356462,2.717195,-77.142584,-11.309388,-3.42501,-1290.6275840000000,-501.390656,261.033968,-1290.0,-489.0,286.5,-85.82764,88.33788,117.229576,-0.131432,0.6827,0.181285,0.695543,265067.09500000000,265069.443
1742703970.278990,,0,Tag,4,6.236,4.143,3.081,5.868,,9.599599,-0.922777,2.8496450000000000,-76.92897600000000,-11.288002000000000,-4.00449,-1292.119808,-505.750976,257.830896,-1291.5,-493.5,283.5,-85.757448,88.610552,115.403048,-0.12153500000000000,0.685099,0.172458,0.6972270000000000,265087.09500000000,265089.444
1742703970.299530,,0,Tag,4,6.288,4.187,3.124,5.854,,9.523676,-1.3539300000000000,2.762658,-76.46038400000000,-11.153864000000000,-4.240256,-1293.59424,-503.77993600000000,247.40572800000000,-1293.0,-492.0,273.0,-85.662976,88.854968,113.61276800000000,-0.111521,0.687326,0.163789,0.698797,265107.09500000000,265109.48
1742703970.320010,,0,Tag,4,6.218,4.269,3.069,5.684,,9.447531,-1.681541,2.6743130000000000,-75.569312,-10.803228000000000,-5.265115,-1287.579648,-503.509888,241.42668800000000,-1287.0,-492.0,267.0,-85.53867200000000,89.046632,111.889984,-0.10140000000000000,0.68936,0.155355,0.70026,265127.09500000000,265129.43700000000
1742703970.339500,,0,Tag,4,6.259,4.258,3.058,5.664,,9.540775,-2.223849,2.5689890000000000,-74.638176,-10.526967000000000,-5.215051,-1289.0540800000000,-501.538848,231.00150400000000,-1288.5,-490.5,256.5,-85.38921600000000,89.15229600000000,110.268384,-0.091206,0.6912000000000000,0.14713100000000000,0.701623,265147.09500000000,265149.436
1742703970.359940,,0,Tag,4,6.225,4.292,3.012,5.617,,9.664871,-2.487745,2.480398,-73.349936,-10.443663000000000,-5.101057,-1295.0423040000000,-507.33014400000000,226.22150400000000,-1294.5,-496.5,252.0,-85.231168,89.23436800000000,108.69228,-0.081077,0.6928950000000000,0.139068,0.702838,265167.09500000000,265169.47000000000
1742703970.380390,,0,Tag,4,6.288,4.319,2.933,5.609,,10.150006,-3.038742,2.75008,-72.41652000000000,-10.652362,-3.732337,-1287.5280640000000,-504.06316800000000,220.381168,-1287.0,-493.5,246.0,-85.07820800000000,89.27183200000000,107.18406400000000,-0.07111000000000000,0.694456,0.131093,0.703909,265187.09500000000,265189.438
1742703970.398810,,0,Tag,4,6.306,4.346,2.947,5.59,,9.670499,-3.73272,2.871242,-71.814312,-10.459451,-4.673162,-1288.9881600000000,-498.825184,204.09728000000000,-1288.5,-489.0,229.5,-84.98886400000000,89.400992,105.59112000000000,-0.061555,0.69604,0.122763,0.704746,265207.09500000000,265209.43700000000
1742703970.419260,,0,Tag,4,6.344,4.392,2.862,5.497,,9.889308,-1.506224,2.408481,-69.714,-10.352093,-4.759372,-1302.491904,-497.394272,205.63017600000000,-1302.0,-487.5,231.0,-84.83116,89.31951200000000,104.26176,-0.05191,0.697286,0.11513800000000000,0.7055780000000000,265227.09500000000,265229.474
1742703970.439710,,0,Tag,4,6.387,4.451,2.853,5.528,,9.259233,-3.588005,2.80227,-70.961152,-11.845323000000000,-0.711139,-1291.966336,-496.92166400000000,195.166848,-1291.5,-487.5,220.5,-84.76304000000000,89.39180000000000,102.763528,-0.042702,0.698637,0.106872,0.706159,265247.09500000000,265249.439
1742703970.460160,,0,Tag,4,6.279,4.432,2.881,5.461,,9.958777,0.378028,2.229393,-66.74063200000000,-9.863136000000000,-0.7725640000000000,-1294.955136,-498.2176,190.596704,-1294.5,-489.0,216.0,-84.637,89.39033600000000,101.402592,-0.033528000000000000,0.6997400000000000,0.099328,0.7066630000000000,265267.09500000000,265269.43700000000
1742703970.479630,,0,Tag,4,6.437,4.499,2.786,5.499,,9.111547,-2.498418,2.123088,-66.961564,-10.876709,0.569442,-1297.929856,-493.24963200000000,180.302864,-1297.5,-484.5,205.5,-84.587424,89.628176,99.798192,-0.024781000000000000,0.70097,0.091291,0.706888,265287.09500000000,265289.474
1742703970.499030,,0,Tag,3,6.453,4.533,5.444,,,9.572609,-1.911602,2.201837,-62.998476,-9.778981,-4.875841000000000,-1293.416448,-482.490432,174.792736,-1293.0,-474.0,199.5,-84.450976,89.613664,98.499184,-0.015836,0.701857,0.084086,0.70716,265307.09500000000,265309.43700000000
1742703970.519650,,0,Tag,4,6.414,4.592,2.786,5.461,,9.180402000000000,-2.503609,2.0414310000000000,-63.186028,-10.422961000000000,-2.912789,-1294.915968,-486.985792,174.586528,-1294.5,-478.5,199.5,-84.32135200000000,89.70652,97.126256,-0.0071320000000000000,0.7027170000000000,0.077039,0.7072500000000000,265327.09500000000,265329.443
1742703970.540190,,0,Tag,4,6.554,4.58,2.717,5.42,,8.871255,-2.208157,1.760502,-60.676076000000000,-9.750945,-3.065954,-1299.389952,-488.011616,164.018992,-1299.0,-480.0,189.0,-84.19448,89.865128,95.714728,0.001388,0.703535,0.070135,0.707189,265347.09500000000,265349.47000000000
1742703970.559650,,0,Tag,4,6.554,4.671,2.708,5.377,,9.100243000000000,-2.447519,1.680528,-60.60834,-9.597343,-1.742105,-1297.87648,-477.252416,158.50150400000000,-1297.5,-469.5,183.0,-84.101,89.99852,94.352648,0.00955,0.704278,0.063166,0.707043,265367.09500000000,265369.44
1742703970.579060,,0,Tag,4,6.554,4.638,2.701,5.38,,9.356155,-2.450955,1.720715,-58.90522,-9.415364,-1.6753290000000000,-1300.8505600000000,-478.278304,147.93763200000000,-1300.5,-471.0,172.5,-84.01096,90.02813600000000,93.112912,0.017572,0.704881,0.056279000000000000,0.70687,265387.09500000000,265389.466
1742703970.599600,,0,Tag,4,6.392,4.707,2.708,5.344,,9.458778000000000,-2.64918,1.545772,-58.098628,-9.541271,-1.5822860000000000,-1302.365824,-474.05299200000000,154.13024,-1302.0,-466.5,178.5,-83.913184,90.06920800000000,91.889664,0.025467,0.705409,0.049607,0.706602,265407.09500000000,265409.495
1742703970.620030,,0,Tag,4,6.529,4.707,2.641,5.32,,8.868467000000000,-3.038211,1.627519,-56.481912000000000,-8.889004,-1.450848,-1294.834048,-462.956192,141.13528,-1294.5,-456.0,165.0,-83.805272,90.163448,90.635976,0.033281,0.7058990000000000,0.043132,0.706214,265427.09500000000,265429.463
1742703970.639420,,0,Tag,4,6.538,4.743,2.614,5.188,,9.030449000000000,-2.680789,1.475012,-55.214364000000000,-8.350872000000000,-1.793863,-1294.822656,-465.750592,136.504976,-1294.5,-459.0,160.5,-83.708552,90.16304800000000,89.508376,0.040826,0.70626,0.036777,0.705816,265447.09500000000,265449.441
1742703970.659840,,0,Tag,4,6.561,4.757,2.632,5.152,,9.213481,-2.999128,1.5930770000000000,-53.710524,-7.84692,-1.6653910000000000,-1300.833792,-464.454656,141.053088,-1300.5,-457.5,165.0,-83.60815200000000,90.070976,88.49744,0.048237000000000000,0.7064930000000000,0.030597,0.70541,265467.09500000000,265469.473
1742703970.679250,,0,Tag,4,6.41,4.836,2.605,5.181,,9.138198,-2.818094,1.487507,-52.281784000000000,-7.688038,-1.509029,-1302.3192320000000,-462.68614400000000,135.12318400000000,-1302.0,-456.0,159.0,-83.515232,89.925448,87.572008,0.055402,0.706627,0.024569,0.704985,265487.09500000000,265489.414
1742703970.699660,,0,Tag,3,4.822,2.614,5.143,,,8.763262,-2.964708,1.253658,-50.73462,-7.109557,-1.567548,-1297.7941760000000,-456.219744,124.91524,-1297.5,-450.0,148.5,-83.422512,89.81305600000000,86.642208,0.062383000000000000,0.706726,0.018715,0.7044820000000000,265507.09500000000,265509.415
1742703970.719130,,0,Tag,4,6.41,4.777,2.586,5.164,,8.839809000000000,-2.890867,1.1880090000000000,-49.341424000000000,-6.591293000000000,-1.062035,-1306.801792,-453.357888,128.025104,-1306.5,-447.0,151.5,-83.33064,89.632336,85.811712,0.06916600000000000,0.706722,0.013050000000000000,0.7039800000000000,265527.09500000000,265529.444
1742703970.739570,,0,Tag,4,6.532,4.848,2.526,5.011,,8.978562,-2.84436,1.148119,-48.033624000000000,-6.057042,-0.31668200000000000,-1303.78368,-451.52185600000000,120.60779200000000,-1303.5,-445.5,144.0,-83.259424,89.420912,85.038816,0.075654,0.7066480000000000,0.007424,0.703469,265547.09500000000,265549.41000000000
1742703970.760020,,0,Tag,4,6.536,4.865,2.582,5.083,,9.093295,-2.882154,1.064384,-46.887388,-5.41984,-0.9026720000000000,-1306.780032,-449.955872,119.169536,-1306.5,-444.0,142.5,-83.190264,89.145152,84.356512,0.081966,0.7064780000000000,0.001952,0.702969,265567.09500000000,265569.413
1742703970.779400,,0,Tag,4,6.478,4.927,2.54,5.026,,9.132572,-3.218161,0.93585,-45.345688000000000,-4.998491,-1.390297,-1300.784384,-444.029568,120.952688,-1300.5,-438.0,144.0,-83.10532000000000,88.85805600000000,83.712808,0.08820400000000000,0.706252,-0.003251,0.7024350000000000,265587.09500000000,265589.445
1742703970.799820,,0,Tag,4,6.575,4.973,2.524,5.009,,8.960645,-3.258218,0.989775,-43.564716,-4.660331,-1.334458,-1309.773696,-440.83014400000000,116.57038400000000,-1309.5,-435.0,139.5,-83.011304,88.52348000000000,83.150504,0.094287,0.70595,-0.008185,0.701909,265607.09500000000,265609.41000000000
1742703970.819190,,0,Tag,4,6.487,4.982,2.49,4.994,,8.978476000000000,-3.269081,1.01681,-41.720272,-4.161564000000000,-1.2189840000000000,-1294.76352,-434.63379200000000,112.38184800000000,-1294.5,-429.0,135.0,-82.91631200000000,88.153176,82.65844800000000,0.100162,0.7055820000000000,-0.012896,0.701394,265627.09500000000,265629.413
1742703970.839630,,0,Tag,4,6.556,4.949,2.556,4.942,,9.105779,-3.056781,1.054212,-40.388096,-3.9915910000000000,-0.696225,-1296.24512,-435.794688,104.818512,-1296.0,-430.5,127.5,-82.83376800000000,87.74184800000000,82.24027200000000,0.10575800000000000,0.7051500000000000,-0.017477,0.700908,265647.09500000000,265649.443
1742703970.858990,,0,Tag,4,6.575,4.959,2.487,4.951,,9.254273,-3.1919400000000000,1.0565070000000000,-39.039056000000000,-4.075609,-0.218997,-1303.745408,-432.79779200000000,104.93518400000000,-1303.5,-427.5,127.5,-82.764056,87.338488,81.839328,0.111117,0.704693,-0.021978000000000000,0.7004120000000000,265667.09500000000,265669.41000000000
1742703970.879400,,0,Tag,4,6.588,5.035,2.584,4.944,,9.286607,-3.200301,1.0069920000000000,-37.512852000000000,-4.452064,-0.281368,-1311.2378880000000,-432.66275200000000,101.919952,-1311.0,-427.5,124.5,-82.69344,87.014904,81.38906400000000,0.11628900000000000,0.70427,-0.026286,0.6998480000000000,265687.09500000000,265689.445
1742703970.899830,,0,Tag,4,6.701,5.009,2.485,4.92,,9.136862000000000,-3.109666,0.931709,-35.871888,-4.685815,-0.016949,-1311.2312320000000,-426.53392000000000,99.193128,-1311.0,-421.5,121.5,-82.62792,86.783328,80.879824,0.121221,0.7038990000000000,-0.030423,0.699217,265707.09500000000,265709.444
1742703970.920330,,0,Tag,4,6.651,5.061,2.568,4.923,,8.892674,-3.172265,0.8920400000000000,-34.44254,-4.280557,0.195263,-1309.7315840000000,-423.537024,99.331824,-1309.5,-418.5,121.5,-82.567848,86.589632,80.362824,0.125931,0.7035400000000000,-0.034407,0.698561,265727.09500000000,265729.411
1742703970.939790,,0,Tag,4,6.653,5.054,2.492,4.877,,8.575239,-3.36853,0.8586430000000000,-32.454174,-3.5900560000000000,-0.255007,-1308.209408,-424.630368,90.2774,-1308.0,-420.0,112.5,-82.49638400000000,86.348096,79.927656,0.130501,0.703127,-0.038107000000000000,0.6979450000000000,265747.09500000000,265749.445
1742703970.959210,,0,Tag,4,6.579,5.078,2.448,4.851,,8.321508,-3.6595970000000000,0.7690860000000000,-30.077200000000000,-2.679137,-0.32143500000000000,-1303.7216000000000,-414.34374400000000,95.256288,-1303.5,-409.5,117.0,-82.410152,86.048784,79.594336,0.13489200000000000,0.70266,-0.04144,0.697391,265767.09500000000,265769.444
1742703970.979810,,0,Tag,4,6.459,5.071,2.46,4.829,,8.285111000000000,-3.7808730000000000,0.697473,-27.621322,-2.224871,-0.34633000000000000,-1309.713792,-417.205632,92.109712,-1309.5,-412.5,114.0,-82.31567200000000,85.713752,79.345672,0.139034,0.7021610000000000,-0.044416,0.696897,265787.09500000000,265789.413
